row,rt,button_pressed,left_image,right_image,trial_type,trial_index,time_elapsed,subject_id,task,responses
1,2378,0," "," ",html-button-response,0,2405,5d14fc1506d74500016a84a9,typicality,NULL
2,28137,NULL," "," ",instructions,1,30545,5d14fc1506d74500016a84a9,typicality,NULL
3,26301,NULL,NULL,NULL,survey-text,2,56855,5d14fc1506d74500016a84a9,typicality,"{"Q0":"To click on the number that is more strange, weird, or unusual."}"
4,2997,0,zero_10.png,zero_8.png,html-button-response,3,59857,5d14fc1506d74500016a84a9,typicality,NULL
5,2172,0,one_2.png,one_6.png,html-button-response,4,62030,5d14fc1506d74500016a84a9,typicality,NULL
6,2560,1,one_8.png,one_1.png,html-button-response,5,64592,5d14fc1506d74500016a84a9,typicality,NULL
7,2446,1,five_2.png,five_5.png,html-button-response,6,67040,5d14fc1506d74500016a84a9,typicality,NULL
8,1948,1,seven_7.png,seven_5.png,html-button-response,7,68990,5d14fc1506d74500016a84a9,typicality,NULL
9,2624,1,five_1.png,five_6.png,html-button-response,8,71616,5d14fc1506d74500016a84a9,typicality,NULL
10,1332,1,nine_9.png,nine_4.png,html-button-response,9,72950,5d14fc1506d74500016a84a9,typicality,NULL
11,2778,1,zero_3.png,zero_10.png,html-button-response,10,75730,5d14fc1506d74500016a84a9,typicality,NULL
12,2064,1,three_10.png,three_7.png,html-button-response,11,77796,5d14fc1506d74500016a84a9,typicality,NULL
13,2132,0,four_1.png,four_7.png,html-button-response,12,79930,5d14fc1506d74500016a84a9,typicality,NULL
14,1508,0,two_1.png,two_7.png,html-button-response,13,81440,5d14fc1506d74500016a84a9,typicality,NULL
15,2456,1,six_9.png,six_1.png,html-button-response,14,83897,5d14fc1506d74500016a84a9,typicality,NULL
16,2662,1,eight_10.png,eight_8.png,html-button-response,15,86562,5d14fc1506d74500016a84a9,typicality,NULL
17,2111,1,two_6.png,two_10.png,html-button-response,16,88673,5d14fc1506d74500016a84a9,typicality,NULL
18,1996,1,six_5.png,six_1.png,html-button-response,17,90671,5d14fc1506d74500016a84a9,typicality,NULL
19,3611,0,two_8.png,two_4.png,html-button-response,18,94283,5d14fc1506d74500016a84a9,typicality,NULL
20,2412,1,nine_1.png,nine_2.png,html-button-response,19,96697,5d14fc1506d74500016a84a9,typicality,NULL
21,2806,1,nine_1.png,nine_2.png,html-button-response,20,99506,5d14fc1506d74500016a84a9,typicality,NULL
22,3196,0,nine_7.png,nine_6.png,html-button-response,21,102703,5d14fc1506d74500016a84a9,typicality,NULL
23,3196,1,five_1.png,five_6.png,html-button-response,22,105901,5d14fc1506d74500016a84a9,typicality,NULL
24,1337,0,zero_6.png,zero_5.png,html-button-response,23,107239,5d14fc1506d74500016a84a9,typicality,NULL
25,2210,0,zero_9.png,zero_3.png,html-button-response,24,109451,5d14fc1506d74500016a84a9,typicality,NULL
26,1578,1,six_6.png,six_2.png,html-button-response,25,111031,5d14fc1506d74500016a84a9,typicality,NULL
27,2043,1,nine_10.png,nine_9.png,html-button-response,26,113075,5d14fc1506d74500016a84a9,typicality,NULL
28,11998,1,three_7.png,three_6.png,html-button-response,27,125074,5d14fc1506d74500016a84a9,typicality,NULL
29,4197,0,six_8.png,six_7.png,html-button-response,28,129272,5d14fc1506d74500016a84a9,typicality,NULL
30,16370,0,eight_6.png,eight_2.png,html-button-response,29,145644,5d14fc1506d74500016a84a9,typicality,NULL
31,1007,0,one_7.png,one_3.png,html-button-response,30,146653,5d14fc1506d74500016a84a9,typicality,NULL
32,2440,0,eight_4.png,eight_9.png,html-button-response,31,149094,5d14fc1506d74500016a84a9,typicality,NULL
33,1216,0,zero_6.png,zero_2.png,html-button-response,32,150312,5d14fc1506d74500016a84a9,typicality,NULL
34,2271,1,two_4.png,two_3.png,html-button-response,33,152584,5d14fc1506d74500016a84a9,typicality,NULL
35,1872,0,three_4.png,three_10.png,html-button-response,34,154457,5d14fc1506d74500016a84a9,typicality,NULL
36,1588,0,seven_4.png,seven_9.png,html-button-response,35,156048,5d14fc1506d74500016a84a9,typicality,NULL
37,1429,1,three_8.png,three_2.png,html-button-response,36,157478,5d14fc1506d74500016a84a9,typicality,NULL
38,2367,1,three_1.png,three_4.png,html-button-response,37,159846,5d14fc1506d74500016a84a9,typicality,NULL
39,3086,1,seven_3.png,seven_6.png,html-button-response,38,162934,5d14fc1506d74500016a84a9,typicality,NULL
40,2182,1,eight_9.png,eight_4.png,html-button-response,39,165118,5d14fc1506d74500016a84a9,typicality,NULL
41,1442,0,eight_3.png,eight_2.png,html-button-response,40,166561,5d14fc1506d74500016a84a9,typicality,NULL
42,3473,0,two_3.png,two_5.png,html-button-response,41,170036,5d14fc1506d74500016a84a9,typicality,NULL
43,1908,1,four_5.png,four_6.png,html-button-response,42,171945,5d14fc1506d74500016a84a9,typicality,NULL
44,1314,0,eight_1.png,eight_5.png,html-button-response,43,173262,5d14fc1506d74500016a84a9,typicality,NULL
45,1850,1,two_8.png,two_5.png,html-button-response,44,175113,5d14fc1506d74500016a84a9,typicality,NULL
46,2646,1,nine_6.png,nine_8.png,html-button-response,45,177762,5d14fc1506d74500016a84a9,typicality,NULL
47,1067,0,eight_8.png,eight_10.png,html-button-response,46,178829,5d14fc1506d74500016a84a9,typicality,NULL
48,1916,0,seven_2.png,seven_3.png,html-button-response,47,180747,5d14fc1506d74500016a84a9,typicality,NULL
49,2148,1,seven_7.png,seven_1.png,html-button-response,48,182897,5d14fc1506d74500016a84a9,typicality,NULL
50,1120,1,one_9.png,one_5.png,html-button-response,49,184019,5d14fc1506d74500016a84a9,typicality,NULL
51,1436,1,zero_2.png,zero_4.png,html-button-response,50,185458,5d14fc1506d74500016a84a9,typicality,NULL
52,1714,0,seven_5.png,seven_6.png,html-button-response,51,187174,5d14fc1506d74500016a84a9,typicality,NULL
53,1820,0,seven_9.png,seven_10.png,html-button-response,52,188995,5d14fc1506d74500016a84a9,typicality,NULL
54,1788,0,four_3.png,four_10.png,html-button-response,53,190785,5d14fc1506d74500016a84a9,typicality,NULL
55,2196,1,five_4.png,five_2.png,html-button-response,54,192983,5d14fc1506d74500016a84a9,typicality,NULL
56,2180,0,six_8.png,six_3.png,html-button-response,55,195165,5d14fc1506d74500016a84a9,typicality,NULL
57,2063,1,zero_1.png,zero_5.png,html-button-response,56,197229,5d14fc1506d74500016a84a9,typicality,NULL
58,1860,0,four_8.png,four_2.png,html-button-response,57,199091,5d14fc1506d74500016a84a9,typicality,NULL
59,1290,0,four_9.png,four_5.png,html-button-response,58,200383,5d14fc1506d74500016a84a9,typicality,NULL
60,2454,1,one_8.png,one_4.png,html-button-response,59,202839,5d14fc1506d74500016a84a9,typicality,NULL
61,2664,0,nine_3.png,nine_7.png,html-button-response,60,205504,5d14fc1506d74500016a84a9,typicality,NULL
62,1588,1,two_9.png,two_6.png,html-button-response,61,207095,5d14fc1506d74500016a84a9,typicality,NULL
63,2196,0,five_10.png,five_9.png,html-button-response,62,209292,5d14fc1506d74500016a84a9,typicality,NULL
64,1669,1,zero_7.png,zero_9.png,html-button-response,63,210962,5d14fc1506d74500016a84a9,typicality,NULL
65,2422,1,three_9.png,three_2.png,html-button-response,64,213387,5d14fc1506d74500016a84a9,typicality,NULL
66,3098,1,four_4.png,four_1.png,html-button-response,65,216487,5d14fc1506d74500016a84a9,typicality,NULL
67,2976,0,five_7.png,five_3.png,html-button-response,66,219464,5d14fc1506d74500016a84a9,typicality,NULL
68,1370,1,eight_5.png,eight_7.png,html-button-response,67,220836,5d14fc1506d74500016a84a9,typicality,NULL
69,2574,1,three_3.png,three_8.png,html-button-response,68,223412,5d14fc1506d74500016a84a9,typicality,NULL
70,1338,1,one_4.png,one_7.png,html-button-response,69,224754,5d14fc1506d74500016a84a9,typicality,NULL
71,1532,1,two_2.png,two_1.png,html-button-response,70,226289,5d14fc1506d74500016a84a9,typicality,NULL
72,1403,0,three_9.png,three_3.png,html-button-response,71,227692,5d14fc1506d74500016a84a9,typicality,NULL
73,1731,0,six_9.png,six_7.png,html-button-response,72,229424,5d14fc1506d74500016a84a9,typicality,NULL
74,1404,1,four_10.png,four_2.png,html-button-response,73,230830,5d14fc1506d74500016a84a9,typicality,NULL
75,1741,1,six_3.png,six_5.png,html-button-response,74,232572,5d14fc1506d74500016a84a9,typicality,NULL
76,1716,1,four_7.png,four_8.png,html-button-response,75,234290,5d14fc1506d74500016a84a9,typicality,NULL
77,4117,0,eight_7.png,eight_3.png,html-button-response,76,238408,5d14fc1506d74500016a84a9,typicality,NULL
78,2074,1,zero_1.png,zero_7.png,html-button-response,77,240484,5d14fc1506d74500016a84a9,typicality,NULL
79,1499,0,one_6.png,one_2.png,html-button-response,78,241984,5d14fc1506d74500016a84a9,typicality,NULL
80,1128,1,one_9.png,one_1.png,html-button-response,79,243114,5d14fc1506d74500016a84a9,typicality,NULL
81,1844,1,eight_1.png,eight_6.png,html-button-response,80,244960,5d14fc1506d74500016a84a9,typicality,NULL
82,1955,0,nine_4.png,nine_3.png,html-button-response,81,246915,5d14fc1506d74500016a84a9,typicality,NULL
83,1168,0,five_5.png,five_8.png,html-button-response,82,248086,5d14fc1506d74500016a84a9,typicality,NULL
84,1795,1,five_4.png,five_10.png,html-button-response,83,249882,5d14fc1506d74500016a84a9,typicality,NULL
85,1429,1,seven_10.png,seven_8.png,html-button-response,84,251312,5d14fc1506d74500016a84a9,typicality,NULL
86,1298,0,two_7.png,two_10.png,html-button-response,85,252611,5d14fc1506d74500016a84a9,typicality,NULL
87,1313,1,three_1.png,three_5.png,html-button-response,86,253926,5d14fc1506d74500016a84a9,typicality,NULL
88,1040,0,six_2.png,six_6.png,html-button-response,87,254967,5d14fc1506d74500016a84a9,typicality,NULL
89,1386,0,five_9.png,five_3.png,html-button-response,88,256355,5d14fc1506d74500016a84a9,typicality,NULL
90,1185,1,seven_1.png,seven_4.png,html-button-response,89,257542,5d14fc1506d74500016a84a9,typicality,NULL
91,1661,0,nine_5.png,nine_8.png,html-button-response,90,259204,5d14fc1506d74500016a84a9,typicality,NULL
92,1674,1,six_10.png,six_4.png,html-button-response,91,260880,5d14fc1506d74500016a84a9,typicality,NULL
93,1986,0,nine_5.png,nine_10.png,html-button-response,92,262867,5d14fc1506d74500016a84a9,typicality,NULL
94,1409,0,two_2.png,two_9.png,html-button-response,93,264277,5d14fc1506d74500016a84a9,typicality,NULL
95,2035,0,three_6.png,three_5.png,html-button-response,94,266314,5d14fc1506d74500016a84a9,typicality,NULL
96,2114,1,four_4.png,four_9.png,html-button-response,95,268430,5d14fc1506d74500016a84a9,typicality,NULL
97,1151,0,five_7.png,five_8.png,html-button-response,96,269583,5d14fc1506d74500016a84a9,typicality,NULL
98,2035,0,one_5.png,one_10.png,html-button-response,97,271620,5d14fc1506d74500016a84a9,typicality,NULL
99,1142,1,zero_8.png,zero_4.png,html-button-response,98,272762,5d14fc1506d74500016a84a9,typicality,NULL
100,944,0,seven_2.png,seven_8.png,html-button-response,99,273708,5d14fc1506d74500016a84a9,typicality,NULL
101,1657,0,one_10.png,one_3.png,html-button-response,100,275367,5d14fc1506d74500016a84a9,typicality,NULL
102,2794,1,four_6.png,four_3.png,html-button-response,101,278162,5d14fc1506d74500016a84a9,typicality,NULL
103,2401,1,six_10.png,six_4.png,html-button-response,102,280565,5d14fc1506d74500016a84a9,typicality,NULL
104,2113,0," "," ",html-button-response,0,2138,5d14fb507091ed0019774f6a,typicality,NULL
105,8656,NULL," "," ",instructions,1,10796,5d14fb507091ed0019774f6a,typicality,NULL
106,61681,NULL,NULL,NULL,survey-text,2,72494,5d14fb507091ed0019774f6a,typicality,"{"Q0":"I think I would need to choose which of the following handwritten digits seem the most peculiar to my eyes."}"
107,12791,0,six_6.png,six_7.png,html-button-response,3,85288,5d14fb507091ed0019774f6a,typicality,NULL
108,4844,0,two_10.png,two_8.png,html-button-response,4,90133,5d14fb507091ed0019774f6a,typicality,NULL
109,3831,0,seven_3.png,seven_8.png,html-button-response,5,93965,5d14fb507091ed0019774f6a,typicality,NULL
110,2863,1,two_7.png,two_2.png,html-button-response,6,96830,5d14fb507091ed0019774f6a,typicality,NULL
111,2042,0,four_9.png,four_8.png,html-button-response,7,98873,5d14fb507091ed0019774f6a,typicality,NULL
112,1842,1,six_10.png,six_8.png,html-button-response,8,100716,5d14fb507091ed0019774f6a,typicality,NULL
113,1229,0,two_1.png,two_9.png,html-button-response,9,101946,5d14fb507091ed0019774f6a,typicality,NULL
114,2557,0,five_2.png,five_8.png,html-button-response,10,104504,5d14fb507091ed0019774f6a,typicality,NULL
115,3196,1,eight_7.png,eight_8.png,html-button-response,11,107701,5d14fb507091ed0019774f6a,typicality,NULL
116,1469,1,three_4.png,three_10.png,html-button-response,12,109171,5d14fb507091ed0019774f6a,typicality,NULL
117,6240,1,two_3.png,two_6.png,html-button-response,13,115413,5d14fb507091ed0019774f6a,typicality,NULL
118,1825,0,nine_4.png,nine_7.png,html-button-response,14,117238,5d14fb507091ed0019774f6a,typicality,NULL
119,3451,0,one_7.png,one_10.png,html-button-response,15,120691,5d14fb507091ed0019774f6a,typicality,NULL
120,2441,1,six_4.png,six_2.png,html-button-response,16,123132,5d14fb507091ed0019774f6a,typicality,NULL
121,1313,0,six_2.png,six_5.png,html-button-response,17,124446,5d14fb507091ed0019774f6a,typicality,NULL
122,4759,1,seven_7.png,seven_10.png,html-button-response,18,129206,5d14fb507091ed0019774f6a,typicality,NULL
123,3836,0,eight_8.png,eight_4.png,html-button-response,19,133043,5d14fb507091ed0019774f6a,typicality,NULL
124,1981,0,nine_5.png,nine_6.png,html-button-response,20,135025,5d14fb507091ed0019774f6a,typicality,NULL
125,2446,0,seven_4.png,seven_1.png,html-button-response,21,137472,5d14fb507091ed0019774f6a,typicality,NULL
126,1786,0,zero_7.png,zero_1.png,html-button-response,22,139258,5d14fb507091ed0019774f6a,typicality,NULL
127,1836,0,nine_4.png,nine_5.png,html-button-response,23,141095,5d14fb507091ed0019774f6a,typicality,NULL
128,2996,1,five_4.png,five_6.png,html-button-response,24,144092,5d14fb507091ed0019774f6a,typicality,NULL
129,1587,1,zero_3.png,zero_9.png,html-button-response,25,145680,5d14fb507091ed0019774f6a,typicality,NULL
130,3732,0,nine_3.png,nine_1.png,html-button-response,26,149413,5d14fb507091ed0019774f6a,typicality,NULL
131,1346,0,four_1.png,four_3.png,html-button-response,27,150760,5d14fb507091ed0019774f6a,typicality,NULL
132,2603,0,seven_10.png,seven_7.png,html-button-response,28,153364,5d14fb507091ed0019774f6a,typicality,NULL
133,3057,1,eight_3.png,eight_2.png,html-button-response,29,156421,5d14fb507091ed0019774f6a,typicality,NULL
134,1695,1,four_8.png,four_9.png,html-button-response,30,158118,5d14fb507091ed0019774f6a,typicality,NULL
135,1075,0,three_2.png,three_9.png,html-button-response,31,159193,5d14fb507091ed0019774f6a,typicality,NULL
136,1319,0,one_5.png,one_4.png,html-button-response,32,160513,5d14fb507091ed0019774f6a,typicality,NULL
137,2465,0,four_7.png,four_2.png,html-button-response,33,162979,5d14fb507091ed0019774f6a,typicality,NULL
138,3751,1,four_5.png,four_2.png,html-button-response,34,166731,5d14fb507091ed0019774f6a,typicality,NULL
139,1096,1,seven_6.png,seven_5.png,html-button-response,35,167828,5d14fb507091ed0019774f6a,typicality,NULL
140,1094,0,zero_10.png,zero_6.png,html-button-response,36,168924,5d14fb507091ed0019774f6a,typicality,NULL
141,2692,0,three_8.png,three_3.png,html-button-response,37,171616,5d14fb507091ed0019774f6a,typicality,NULL
142,2765,1,zero_6.png,zero_9.png,html-button-response,38,174382,5d14fb507091ed0019774f6a,typicality,NULL
143,2820,0,one_10.png,one_3.png,html-button-response,39,177203,5d14fb507091ed0019774f6a,typicality,NULL
144,3308,0,seven_2.png,seven_5.png,html-button-response,40,180512,5d14fb507091ed0019774f6a,typicality,NULL
145,1681,1,seven_4.png,seven_9.png,html-button-response,41,182194,5d14fb507091ed0019774f6a,typicality,NULL
146,1947,0,six_1.png,six_3.png,html-button-response,42,184142,5d14fb507091ed0019774f6a,typicality,NULL
147,1429,0,eight_6.png,eight_9.png,html-button-response,43,185572,5d14fb507091ed0019774f6a,typicality,NULL
148,3685,0,two_5.png,two_6.png,html-button-response,44,189258,5d14fb507091ed0019774f6a,typicality,NULL
149,1066,1,three_1.png,three_2.png,html-button-response,45,190325,5d14fb507091ed0019774f6a,typicality,NULL
150,2684,1,three_1.png,three_5.png,html-button-response,46,193010,5d14fb507091ed0019774f6a,typicality,NULL
151,1389,1,nine_6.png,nine_7.png,html-button-response,47,194400,5d14fb507091ed0019774f6a,typicality,NULL
152,1083,1,one_6.png,one_2.png,html-button-response,48,195484,5d14fb507091ed0019774f6a,typicality,NULL
153,2127,0,six_6.png,six_3.png,html-button-response,49,197612,5d14fb507091ed0019774f6a,typicality,NULL
154,3579,0,six_4.png,six_9.png,html-button-response,50,201192,5d14fb507091ed0019774f6a,typicality,NULL
155,2966,1,seven_8.png,seven_2.png,html-button-response,51,204159,5d14fb507091ed0019774f6a,typicality,NULL
156,4083,1,six_10.png,six_1.png,html-button-response,52,208243,5d14fb507091ed0019774f6a,typicality,NULL
157,1186,0,one_5.png,one_8.png,html-button-response,53,209430,5d14fb507091ed0019774f6a,typicality,NULL
158,3201,0,seven_6.png,seven_1.png,html-button-response,54,212633,5d14fb507091ed0019774f6a,typicality,NULL
159,3662,0,nine_2.png,nine_8.png,html-button-response,55,216295,5d14fb507091ed0019774f6a,typicality,NULL
160,4031,1,nine_1.png,nine_10.png,html-button-response,56,220327,5d14fb507091ed0019774f6a,typicality,NULL
161,1233,1,five_2.png,five_5.png,html-button-response,57,221561,5d14fb507091ed0019774f6a,typicality,NULL
162,2606,1,five_9.png,five_5.png,html-button-response,58,224168,5d14fb507091ed0019774f6a,typicality,NULL
163,1096,0,one_4.png,one_9.png,html-button-response,59,225265,5d14fb507091ed0019774f6a,typicality,NULL
164,4848,1,eight_5.png,eight_7.png,html-button-response,60,230115,5d14fb507091ed0019774f6a,typicality,NULL
165,1638,0,one_2.png,one_9.png,html-button-response,61,231754,5d14fb507091ed0019774f6a,typicality,NULL
166,1920,1,three_3.png,three_6.png,html-button-response,62,233674,5d14fb507091ed0019774f6a,typicality,NULL
167,2267,0,five_10.png,five_8.png,html-button-response,63,235943,5d14fb507091ed0019774f6a,typicality,NULL
168,3210,1,three_6.png,three_5.png,html-button-response,64,239153,5d14fb507091ed0019774f6a,typicality,NULL
169,1056,1,five_3.png,five_10.png,html-button-response,65,240210,5d14fb507091ed0019774f6a,typicality,NULL
170,2611,0,three_9.png,three_4.png,html-button-response,66,242822,5d14fb507091ed0019774f6a,typicality,NULL
171,2769,0,eight_1.png,eight_6.png,html-button-response,67,245591,5d14fb507091ed0019774f6a,typicality,NULL
172,1455,1,two_5.png,two_1.png,html-button-response,68,247047,5d14fb507091ed0019774f6a,typicality,NULL
173,2237,0,two_2.png,two_8.png,html-button-response,69,249285,5d14fb507091ed0019774f6a,typicality,NULL
174,2061,1,nine_10.png,nine_9.png,html-button-response,70,251347,5d14fb507091ed0019774f6a,typicality,NULL
175,2394,0,four_7.png,four_6.png,html-button-response,71,253741,5d14fb507091ed0019774f6a,typicality,NULL
176,2019,1,zero_5.png,zero_8.png,html-button-response,72,255761,5d14fb507091ed0019774f6a,typicality,NULL
177,985,1,one_3.png,one_1.png,html-button-response,73,256748,5d14fb507091ed0019774f6a,typicality,NULL
178,1444,0,one_8.png,one_6.png,html-button-response,74,258193,5d14fb507091ed0019774f6a,typicality,NULL
179,1386,0,two_7.png,two_9.png,html-button-response,75,259579,5d14fb507091ed0019774f6a,typicality,NULL
180,2237,1,nine_3.png,nine_9.png,html-button-response,76,261818,5d14fb507091ed0019774f6a,typicality,NULL
181,1011,0,four_10.png,four_1.png,html-button-response,77,262829,5d14fb507091ed0019774f6a,typicality,NULL
182,2146,1,two_3.png,two_4.png,html-button-response,78,264976,5d14fb507091ed0019774f6a,typicality,NULL
183,1289,1,eight_10.png,eight_1.png,html-button-response,79,266266,5d14fb507091ed0019774f6a,typicality,NULL
184,918,0,zero_4.png,zero_3.png,html-button-response,80,267185,5d14fb507091ed0019774f6a,typicality,NULL
185,2632,0,five_7.png,five_1.png,html-button-response,81,269818,5d14fb507091ed0019774f6a,typicality,NULL
186,1477,1,four_4.png,four_10.png,html-button-response,82,271296,5d14fb507091ed0019774f6a,typicality,NULL
187,2273,0,three_7.png,three_8.png,html-button-response,83,273570,5d14fb507091ed0019774f6a,typicality,NULL
188,4729,1,four_6.png,four_3.png,html-button-response,84,278300,5d14fb507091ed0019774f6a,typicality,NULL
189,1162,0,zero_8.png,zero_1.png,html-button-response,85,279463,5d14fb507091ed0019774f6a,typicality,NULL
190,1645,1,seven_3.png,seven_9.png,html-button-response,86,281109,5d14fb507091ed0019774f6a,typicality,NULL
191,928,1,three_10.png,three_7.png,html-button-response,87,282037,5d14fb507091ed0019774f6a,typicality,NULL
192,3803,1,two_4.png,two_10.png,html-button-response,88,285841,5d14fb507091ed0019774f6a,typicality,NULL
193,1142,1,zero_2.png,zero_10.png,html-button-response,89,286984,5d14fb507091ed0019774f6a,typicality,NULL
194,1191,0,five_7.png,five_1.png,html-button-response,90,288176,5d14fb507091ed0019774f6a,typicality,NULL
195,4361,1,nine_8.png,nine_2.png,html-button-response,91,292537,5d14fb507091ed0019774f6a,typicality,NULL
196,2639,1,eight_9.png,eight_2.png,html-button-response,92,295177,5d14fb507091ed0019774f6a,typicality,NULL
197,2035,1,five_4.png,five_6.png,html-button-response,93,297212,5d14fb507091ed0019774f6a,typicality,NULL
198,1737,1,five_9.png,five_3.png,html-button-response,94,298950,5d14fb507091ed0019774f6a,typicality,NULL
199,1638,0,eight_10.png,eight_3.png,html-button-response,95,300588,5d14fb507091ed0019774f6a,typicality,NULL
200,3781,1,eight_5.png,eight_4.png,html-button-response,96,304370,5d14fb507091ed0019774f6a,typicality,NULL
201,1226,0,zero_4.png,zero_2.png,html-button-response,97,305597,5d14fb507091ed0019774f6a,typicality,NULL
202,2205,0,one_1.png,one_7.png,html-button-response,98,307802,5d14fb507091ed0019774f6a,typicality,NULL
203,2014,1,six_9.png,six_7.png,html-button-response,99,309817,5d14fb507091ed0019774f6a,typicality,NULL
204,5766,0,six_5.png,six_8.png,html-button-response,100,315585,5d14fb507091ed0019774f6a,typicality,NULL
205,2585,0,four_5.png,four_4.png,html-button-response,101,318171,5d14fb507091ed0019774f6a,typicality,NULL
206,1258,0,zero_7.png,zero_5.png,html-button-response,102,319429,5d14fb507091ed0019774f6a,typicality,NULL
207,4194,0," "," ",html-button-response,0,4265,5d14f036dfb2040019a73258,typicality,NULL
208,17655,NULL," "," ",instructions,1,21922,5d14f036dfb2040019a73258,typicality,NULL
209,45689,NULL,NULL,NULL,survey-text,2,67620,5d14f036dfb2040019a73258,typicality,"{"Q0":"You'd want me to choose the more \"unusual\" or the digit that isn't as commonly seen."}"
210,3598,0,two_5.png,two_1.png,html-button-response,3,71220,5d14f036dfb2040019a73258,typicality,NULL
211,2173,1,one_3.png,one_6.png,html-button-response,4,73394,5d14f036dfb2040019a73258,typicality,NULL
212,3068,1,nine_1.png,nine_3.png,html-button-response,5,76464,5d14f036dfb2040019a73258,typicality,NULL
213,2814,1,two_10.png,two_8.png,html-button-response,6,79280,5d14f036dfb2040019a73258,typicality,NULL
214,3186,1,eight_1.png,eight_8.png,html-button-response,7,82467,5d14f036dfb2040019a73258,typicality,NULL
215,3487,1,eight_2.png,eight_10.png,html-button-response,8,85956,5d14f036dfb2040019a73258,typicality,NULL
216,7022,0,two_6.png,two_9.png,html-button-response,9,92980,5d14f036dfb2040019a73258,typicality,NULL
217,1888,0,six_4.png,six_7.png,html-button-response,10,94869,5d14f036dfb2040019a73258,typicality,NULL
218,3441,1,five_2.png,five_4.png,html-button-response,11,98311,5d14f036dfb2040019a73258,typicality,NULL
219,1960,1,six_2.png,six_1.png,html-button-response,12,100272,5d14f036dfb2040019a73258,typicality,NULL
220,2039,1,seven_9.png,seven_4.png,html-button-response,13,102313,5d14f036dfb2040019a73258,typicality,NULL
221,3322,0,one_10.png,one_2.png,html-button-response,14,105637,5d14f036dfb2040019a73258,typicality,NULL
222,4136,0,one_5.png,one_9.png,html-button-response,15,109774,5d14f036dfb2040019a73258,typicality,NULL
223,3194,0,six_5.png,six_9.png,html-button-response,16,112970,5d14f036dfb2040019a73258,typicality,NULL
224,1661,0,eight_10.png,eight_7.png,html-button-response,17,114632,5d14f036dfb2040019a73258,typicality,NULL
225,3502,0,three_8.png,three_4.png,html-button-response,18,118136,5d14f036dfb2040019a73258,typicality,NULL
226,3383,0,one_4.png,one_6.png,html-button-response,19,121521,5d14f036dfb2040019a73258,typicality,NULL
227,5458,1,one_2.png,one_8.png,html-button-response,20,126980,5d14f036dfb2040019a73258,typicality,NULL
228,2973,1,nine_8.png,nine_3.png,html-button-response,21,129955,5d14f036dfb2040019a73258,typicality,NULL
229,3678,1,eight_3.png,eight_9.png,html-button-response,22,133633,5d14f036dfb2040019a73258,typicality,NULL
230,3829,0,six_6.png,six_10.png,html-button-response,23,137464,5d14f036dfb2040019a73258,typicality,NULL
231,5090,0,seven_5.png,seven_10.png,html-button-response,24,142555,5d14f036dfb2040019a73258,typicality,NULL
232,1747,0,eight_8.png,eight_3.png,html-button-response,25,144304,5d14f036dfb2040019a73258,typicality,NULL
233,1485,0,seven_5.png,seven_10.png,html-button-response,26,145790,5d14f036dfb2040019a73258,typicality,NULL
234,2332,0,nine_4.png,nine_9.png,html-button-response,27,148124,5d14f036dfb2040019a73258,typicality,NULL
235,5378,1,four_8.png,four_5.png,html-button-response,28,153503,5d14f036dfb2040019a73258,typicality,NULL
236,1652,0,seven_6.png,seven_3.png,html-button-response,29,155156,5d14f036dfb2040019a73258,typicality,NULL
237,1921,1,zero_9.png,zero_8.png,html-button-response,30,157079,5d14f036dfb2040019a73258,typicality,NULL
238,2332,1,six_3.png,six_1.png,html-button-response,31,159412,5d14f036dfb2040019a73258,typicality,NULL
239,1810,0,three_7.png,three_5.png,html-button-response,32,161224,5d14f036dfb2040019a73258,typicality,NULL
240,2071,0,seven_8.png,seven_6.png,html-button-response,33,163296,5d14f036dfb2040019a73258,typicality,NULL
241,1738,0,nine_9.png,nine_10.png,html-button-response,34,165036,5d14f036dfb2040019a73258,typicality,NULL
242,2324,1,four_2.png,four_7.png,html-button-response,35,167362,5d14f036dfb2040019a73258,typicality,NULL
243,2260,0,four_7.png,four_4.png,html-button-response,36,169623,5d14f036dfb2040019a73258,typicality,NULL
244,2118,1,zero_2.png,zero_1.png,html-button-response,37,171742,5d14f036dfb2040019a73258,typicality,NULL
245,2564,1,four_4.png,four_3.png,html-button-response,38,174307,5d14f036dfb2040019a73258,typicality,NULL
246,4397,0,two_9.png,two_5.png,html-button-response,39,178705,5d14f036dfb2040019a73258,typicality,NULL
247,1652,1,one_9.png,one_7.png,html-button-response,40,180358,5d14f036dfb2040019a73258,typicality,NULL
248,4324,1,five_3.png,five_1.png,html-button-response,41,184684,5d14f036dfb2040019a73258,typicality,NULL
249,1494,1,seven_4.png,seven_7.png,html-button-response,42,186180,5d14f036dfb2040019a73258,typicality,NULL
250,5591,0,six_4.png,six_2.png,html-button-response,43,191772,5d14f036dfb2040019a73258,typicality,NULL
251,3962,1,one_7.png,one_3.png,html-button-response,44,195735,5d14f036dfb2040019a73258,typicality,NULL
252,5946,0,four_5.png,four_1.png,html-button-response,45,201683,5d14f036dfb2040019a73258,typicality,NULL
253,2737,0,three_5.png,three_3.png,html-button-response,46,204421,5d14f036dfb2040019a73258,typicality,NULL
254,3613,0,three_2.png,three_10.png,html-button-response,47,208036,5d14f036dfb2040019a73258,typicality,NULL
255,2411,1,zero_4.png,zero_3.png,html-button-response,48,210448,5d14f036dfb2040019a73258,typicality,NULL
256,2585,0,two_1.png,two_4.png,html-button-response,49,213035,5d14f036dfb2040019a73258,typicality,NULL
257,1359,0,seven_2.png,seven_9.png,html-button-response,50,214395,5d14f036dfb2040019a73258,typicality,NULL
258,6705,1,four_9.png,four_3.png,html-button-response,51,221101,5d14f036dfb2040019a73258,typicality,NULL
259,2989,0,two_3.png,two_6.png,html-button-response,52,224092,5d14f036dfb2040019a73258,typicality,NULL
260,2315,1,nine_5.png,nine_6.png,html-button-response,53,226409,5d14f036dfb2040019a73258,typicality,NULL
261,3297,0,seven_3.png,seven_1.png,html-button-response,54,229707,5d14f036dfb2040019a73258,typicality,NULL
262,3984,1,zero_9.png,zero_10.png,html-button-response,55,233693,5d14f036dfb2040019a73258,typicality,NULL
263,1959,1,three_1.png,three_7.png,html-button-response,56,235654,5d14f036dfb2040019a73258,typicality,NULL
264,2231,0,four_1.png,four_2.png,html-button-response,57,237886,5d14f036dfb2040019a73258,typicality,NULL
265,2989,0,five_6.png,five_3.png,html-button-response,58,240876,5d14f036dfb2040019a73258,typicality,NULL
266,1984,1,zero_5.png,zero_6.png,html-button-response,59,242861,5d14f036dfb2040019a73258,typicality,NULL
267,1777,1,nine_7.png,nine_4.png,html-button-response,60,244640,5d14f036dfb2040019a73258,typicality,NULL
268,1305,1,five_10.png,five_5.png,html-button-response,61,245946,5d14f036dfb2040019a73258,typicality,NULL
269,1652,0,seven_7.png,seven_1.png,html-button-response,62,247599,5d14f036dfb2040019a73258,typicality,NULL
270,1683,0,zero_6.png,zero_3.png,html-button-response,63,249284,5d14f036dfb2040019a73258,typicality,NULL
271,1842,1,zero_1.png,zero_7.png,html-button-response,64,251127,5d14f036dfb2040019a73258,typicality,NULL
272,1770,0,nine_1.png,nine_2.png,html-button-response,65,252899,5d14f036dfb2040019a73258,typicality,NULL
273,2268,1,nine_5.png,nine_7.png,html-button-response,66,255169,5d14f036dfb2040019a73258,typicality,NULL
274,2015,1,zero_4.png,zero_2.png,html-button-response,67,257185,5d14f036dfb2040019a73258,typicality,NULL
275,3038,1,six_10.png,six_8.png,html-button-response,68,260224,5d14f036dfb2040019a73258,typicality,NULL
276,1953,1,two_7.png,two_3.png,html-button-response,69,262178,5d14f036dfb2040019a73258,typicality,NULL
277,2941,0,one_4.png,one_5.png,html-button-response,70,265121,5d14f036dfb2040019a73258,typicality,NULL
278,1066,0,seven_2.png,seven_8.png,html-button-response,71,266188,5d14f036dfb2040019a73258,typicality,NULL
279,1929,0,zero_8.png,zero_5.png,html-button-response,72,268119,5d14f036dfb2040019a73258,typicality,NULL
280,3883,0,nine_10.png,nine_6.png,html-button-response,73,272002,5d14f036dfb2040019a73258,typicality,NULL
281,1597,1,zero_10.png,zero_7.png,html-button-response,74,273600,5d14f036dfb2040019a73258,typicality,NULL
282,2261,1,eight_7.png,eight_9.png,html-button-response,75,275863,5d14f036dfb2040019a73258,typicality,NULL
283,1722,1,three_6.png,three_9.png,html-button-response,76,277586,5d14f036dfb2040019a73258,typicality,NULL
284,2064,0,one_1.png,one_8.png,html-button-response,77,279651,5d14f036dfb2040019a73258,typicality,NULL
285,3123,1,eight_6.png,eight_5.png,html-button-response,78,282775,5d14f036dfb2040019a73258,typicality,NULL
286,2111,0,six_3.png,six_6.png,html-button-response,79,284887,5d14f036dfb2040019a73258,typicality,NULL
287,2181,0,two_2.png,two_10.png,html-button-response,80,287069,5d14f036dfb2040019a73258,typicality,NULL
288,3235,1,five_1.png,five_7.png,html-button-response,81,290305,5d14f036dfb2040019a73258,typicality,NULL
289,2087,1,eight_4.png,eight_5.png,html-button-response,82,292394,5d14f036dfb2040019a73258,typicality,NULL
290,2315,1,three_8.png,three_9.png,html-button-response,83,294710,5d14f036dfb2040019a73258,typicality,NULL
291,3054,0,eight_6.png,eight_1.png,html-button-response,84,297765,5d14f036dfb2040019a73258,typicality,NULL
292,2775,0,five_9.png,five_6.png,html-button-response,85,300542,5d14f036dfb2040019a73258,typicality,NULL
293,2553,0,five_4.png,five_2.png,html-button-response,86,303097,5d14f036dfb2040019a73258,typicality,NULL
294,2720,1,three_4.png,three_3.png,html-button-response,87,305818,5d14f036dfb2040019a73258,typicality,NULL
295,2479,1,six_9.png,six_5.png,html-button-response,88,308302,5d14f036dfb2040019a73258,typicality,NULL
296,2997,0,five_8.png,five_9.png,html-button-response,89,311300,5d14f036dfb2040019a73258,typicality,NULL
297,3858,1,two_4.png,two_8.png,html-button-response,90,315160,5d14f036dfb2040019a73258,typicality,NULL
298,1525,1,one_1.png,one_10.png,html-button-response,91,316687,5d14f036dfb2040019a73258,typicality,NULL
299,5804,1,four_9.png,four_6.png,html-button-response,92,322492,5d14f036dfb2040019a73258,typicality,NULL
300,2442,1,five_7.png,five_8.png,html-button-response,93,324936,5d14f036dfb2040019a73258,typicality,NULL
301,2601,1,nine_2.png,nine_8.png,html-button-response,94,327538,5d14f036dfb2040019a73258,typicality,NULL
302,1778,1,two_7.png,two_2.png,html-button-response,95,329318,5d14f036dfb2040019a73258,typicality,NULL
303,1548,0,five_5.png,five_10.png,html-button-response,96,330867,5d14f036dfb2040019a73258,typicality,NULL
304,1777,1,six_7.png,six_8.png,html-button-response,97,332647,5d14f036dfb2040019a73258,typicality,NULL
305,2719,0,four_8.png,four_10.png,html-button-response,98,335368,5d14f036dfb2040019a73258,typicality,NULL
306,2276,0,four_10.png,four_6.png,html-button-response,99,337645,5d14f036dfb2040019a73258,typicality,NULL
307,4233,0,eight_4.png,eight_2.png,html-button-response,100,341880,5d14f036dfb2040019a73258,typicality,NULL
308,1470,0,three_2.png,three_6.png,html-button-response,101,343351,5d14f036dfb2040019a73258,typicality,NULL
309,2016,1,three_1.png,three_10.png,html-button-response,102,345368,5d14f036dfb2040019a73258,typicality,NULL
310,2865,0," "," ",html-button-response,0,2936,5d1501edf830350001181ff8,typicality,NULL
311,38439,NULL," "," ",instructions,1,41377,5d1501edf830350001181ff8,typicality,NULL
312,26522,NULL,NULL,NULL,survey-text,2,68010,5d1501edf830350001181ff8,typicality,"{"Q0":"Click on the one that most resembles the number."}"
313,7401,1,eight_6.png,eight_10.png,html-button-response,3,75416,5d1501edf830350001181ff8,typicality,NULL
314,1583,0,five_4.png,five_7.png,html-button-response,4,77003,5d1501edf830350001181ff8,typicality,NULL
315,2944,0,six_10.png,six_7.png,html-button-response,5,79950,5d1501edf830350001181ff8,typicality,NULL
316,2360,1,one_5.png,one_10.png,html-button-response,6,82313,5d1501edf830350001181ff8,typicality,NULL
317,2243,1,two_1.png,two_9.png,html-button-response,7,84559,5d1501edf830350001181ff8,typicality,NULL
318,1113,1,five_9.png,five_2.png,html-button-response,8,85673,5d1501edf830350001181ff8,typicality,NULL
319,2935,1,zero_8.png,zero_9.png,html-button-response,9,88610,5d1501edf830350001181ff8,typicality,NULL
320,1690,1,two_5.png,two_9.png,html-button-response,10,90304,5d1501edf830350001181ff8,typicality,NULL
321,1685,0,three_8.png,three_2.png,html-button-response,11,91990,5d1501edf830350001181ff8,typicality,NULL
322,1377,0,three_3.png,three_2.png,html-button-response,12,93369,5d1501edf830350001181ff8,typicality,NULL
323,4243,0,eight_10.png,eight_6.png,html-button-response,13,97616,5d1501edf830350001181ff8,typicality,NULL
324,1653,0,nine_10.png,nine_9.png,html-button-response,14,99272,5d1501edf830350001181ff8,typicality,NULL
325,1782,1,four_8.png,four_4.png,html-button-response,15,101056,5d1501edf830350001181ff8,typicality,NULL
326,1456,1,three_8.png,three_4.png,html-button-response,16,102514,5d1501edf830350001181ff8,typicality,NULL
327,1181,0,four_5.png,four_9.png,html-button-response,17,103697,5d1501edf830350001181ff8,typicality,NULL
328,3526,0,eight_5.png,eight_4.png,html-button-response,18,107225,5d1501edf830350001181ff8,typicality,NULL
329,1722,0,zero_1.png,zero_7.png,html-button-response,19,108949,5d1501edf830350001181ff8,typicality,NULL
330,1436,0,zero_3.png,zero_2.png,html-button-response,20,110388,5d1501edf830350001181ff8,typicality,NULL
331,2373,1,four_8.png,four_10.png,html-button-response,21,112762,5d1501edf830350001181ff8,typicality,NULL
332,1862,0,two_8.png,two_10.png,html-button-response,22,114626,5d1501edf830350001181ff8,typicality,NULL
333,1437,1,seven_6.png,seven_2.png,html-button-response,23,116066,5d1501edf830350001181ff8,typicality,NULL
334,883,1,zero_5.png,zero_1.png,html-button-response,24,116950,5d1501edf830350001181ff8,typicality,NULL
335,3831,1,one_7.png,one_2.png,html-button-response,25,120783,5d1501edf830350001181ff8,typicality,NULL
336,1296,1,nine_4.png,nine_3.png,html-button-response,26,122083,5d1501edf830350001181ff8,typicality,NULL
337,1882,0,five_8.png,five_5.png,html-button-response,27,123968,5d1501edf830350001181ff8,typicality,NULL
338,1849,0,six_3.png,six_9.png,html-button-response,28,125819,5d1501edf830350001181ff8,typicality,NULL
339,1879,1,four_3.png,four_1.png,html-button-response,29,127701,5d1501edf830350001181ff8,typicality,NULL
340,1406,1,three_9.png,three_6.png,html-button-response,30,129110,5d1501edf830350001181ff8,typicality,NULL
341,1417,1,four_3.png,four_6.png,html-button-response,31,130530,5d1501edf830350001181ff8,typicality,NULL
342,1239,1,zero_4.png,zero_9.png,html-button-response,32,131772,5d1501edf830350001181ff8,typicality,NULL
343,6077,1,seven_5.png,seven_9.png,html-button-response,33,137851,5d1501edf830350001181ff8,typicality,NULL
344,4233,1,one_7.png,one_9.png,html-button-response,34,142087,5d1501edf830350001181ff8,typicality,NULL
345,1201,1,one_2.png,one_6.png,html-button-response,35,143291,5d1501edf830350001181ff8,typicality,NULL
346,1632,1,four_2.png,four_9.png,html-button-response,36,144924,5d1501edf830350001181ff8,typicality,NULL
347,4344,1,five_3.png,five_4.png,html-button-response,37,149271,5d1501edf830350001181ff8,typicality,NULL
348,1415,0,two_2.png,two_1.png,html-button-response,38,150689,5d1501edf830350001181ff8,typicality,NULL
349,1445,1,seven_3.png,seven_1.png,html-button-response,39,152137,5d1501edf830350001181ff8,typicality,NULL
350,1378,1,one_1.png,one_4.png,html-button-response,40,153517,5d1501edf830350001181ff8,typicality,NULL
351,2402,0,one_8.png,one_3.png,html-button-response,41,155921,5d1501edf830350001181ff8,typicality,NULL
352,1662,0,eight_9.png,eight_3.png,html-button-response,42,157586,5d1501edf830350001181ff8,typicality,NULL
353,1634,0,zero_8.png,zero_7.png,html-button-response,43,159222,5d1501edf830350001181ff8,typicality,NULL
354,2726,1,six_5.png,six_3.png,html-button-response,44,161950,5d1501edf830350001181ff8,typicality,NULL
355,1828,0,two_8.png,two_4.png,html-button-response,45,163782,5d1501edf830350001181ff8,typicality,NULL
356,1328,0,eight_2.png,eight_7.png,html-button-response,46,165113,5d1501edf830350001181ff8,typicality,NULL
357,1318,0,two_3.png,two_4.png,html-button-response,47,166433,5d1501edf830350001181ff8,typicality,NULL
358,1466,0,zero_10.png,zero_2.png,html-button-response,48,167902,5d1501edf830350001181ff8,typicality,NULL
359,2607,0,three_6.png,three_5.png,html-button-response,49,170512,5d1501edf830350001181ff8,typicality,NULL
360,2646,0,five_7.png,five_9.png,html-button-response,50,173162,5d1501edf830350001181ff8,typicality,NULL
361,1563,0,nine_10.png,nine_9.png,html-button-response,51,174727,5d1501edf830350001181ff8,typicality,NULL
362,1348,0,two_3.png,two_2.png,html-button-response,52,176077,5d1501edf830350001181ff8,typicality,NULL
363,1368,0,one_6.png,one_8.png,html-button-response,53,177446,5d1501edf830350001181ff8,typicality,NULL
364,1269,1,seven_6.png,seven_8.png,html-button-response,54,178718,5d1501edf830350001181ff8,typicality,NULL
365,1496,1,three_7.png,three_1.png,html-button-response,55,180216,5d1501edf830350001181ff8,typicality,NULL
366,1631,1,seven_3.png,seven_8.png,html-button-response,56,181850,5d1501edf830350001181ff8,typicality,NULL
367,1338,0,nine_1.png,nine_5.png,html-button-response,57,183190,5d1501edf830350001181ff8,typicality,NULL
368,2244,1,seven_7.png,seven_10.png,html-button-response,58,185436,5d1501edf830350001181ff8,typicality,NULL
369,2107,0,seven_7.png,seven_10.png,html-button-response,59,187544,5d1501edf830350001181ff8,typicality,NULL
370,1464,1,four_7.png,four_5.png,html-button-response,60,189011,5d1501edf830350001181ff8,typicality,NULL
371,2284,0,one_1.png,one_5.png,html-button-response,61,191297,5d1501edf830350001181ff8,typicality,NULL
372,1249,0,eight_2.png,eight_3.png,html-button-response,62,192548,5d1501edf830350001181ff8,typicality,NULL
373,1376,0,eight_4.png,eight_8.png,html-button-response,63,193927,5d1501edf830350001181ff8,typicality,NULL
374,1515,1,two_7.png,two_6.png,html-button-response,64,195444,5d1501edf830350001181ff8,typicality,NULL
375,1259,1,seven_1.png,seven_4.png,html-button-response,65,196705,5d1501edf830350001181ff8,typicality,NULL
376,1090,0,nine_6.png,nine_2.png,html-button-response,66,197799,5d1501edf830350001181ff8,typicality,NULL
377,3337,0,nine_7.png,nine_6.png,html-button-response,67,201138,5d1501edf830350001181ff8,typicality,NULL
378,2331,1,six_4.png,six_1.png,html-button-response,68,203472,5d1501edf830350001181ff8,typicality,NULL
379,1437,0,six_10.png,six_2.png,html-button-response,69,204931,5d1501edf830350001181ff8,typicality,NULL
380,1407,1,seven_4.png,seven_2.png,html-button-response,70,206340,5d1501edf830350001181ff8,typicality,NULL
381,1673,1,two_7.png,two_10.png,html-button-response,71,208015,5d1501edf830350001181ff8,typicality,NULL
382,2363,0,zero_6.png,zero_4.png,html-button-response,72,210380,5d1501edf830350001181ff8,typicality,NULL
383,2441,1,five_6.png,five_3.png,html-button-response,73,212824,5d1501edf830350001181ff8,typicality,NULL
384,1691,0,six_4.png,six_1.png,html-button-response,74,214517,5d1501edf830350001181ff8,typicality,NULL
385,4600,0,nine_5.png,nine_3.png,html-button-response,75,219119,5d1501edf830350001181ff8,typicality,NULL
386,1444,1,four_6.png,four_10.png,html-button-response,76,220568,5d1501edf830350001181ff8,typicality,NULL
387,2292,0,six_8.png,six_2.png,html-button-response,77,222864,5d1501edf830350001181ff8,typicality,NULL
388,1544,0,nine_2.png,nine_8.png,html-button-response,78,224410,5d1501edf830350001181ff8,typicality,NULL
389,1781,1,five_6.png,five_8.png,html-button-response,79,226194,5d1501edf830350001181ff8,typicality,NULL
390,1377,1,six_6.png,six_7.png,html-button-response,80,227573,5d1501edf830350001181ff8,typicality,NULL
391,1063,0,three_3.png,three_10.png,html-button-response,81,228638,5d1501edf830350001181ff8,typicality,NULL
392,1525,1,two_5.png,two_6.png,html-button-response,82,230164,5d1501edf830350001181ff8,typicality,NULL
393,2353,0,three_1.png,three_4.png,html-button-response,83,232519,5d1501edf830350001181ff8,typicality,NULL
394,1279,0,one_9.png,one_3.png,html-button-response,84,233800,5d1501edf830350001181ff8,typicality,NULL
395,1358,0,nine_1.png,nine_4.png,html-button-response,85,235159,5d1501edf830350001181ff8,typicality,NULL
396,1270,0,three_10.png,three_9.png,html-button-response,86,236431,5d1501edf830350001181ff8,typicality,NULL
397,1130,1,five_10.png,five_1.png,html-button-response,87,237564,5d1501edf830350001181ff8,typicality,NULL
398,1466,0,eight_9.png,eight_7.png,html-button-response,88,239031,5d1501edf830350001181ff8,typicality,NULL
399,1308,0,zero_3.png,zero_5.png,html-button-response,89,240342,5d1501edf830350001181ff8,typicality,NULL
400,1308,1,five_5.png,five_2.png,html-button-response,90,241651,5d1501edf830350001181ff8,typicality,NULL
401,2017,0,zero_6.png,zero_10.png,html-button-response,91,243671,5d1501edf830350001181ff8,typicality,NULL
402,1229,0,six_5.png,six_6.png,html-button-response,92,244902,5d1501edf830350001181ff8,typicality,NULL
403,1180,0,one_4.png,one_10.png,html-button-response,93,246085,5d1501edf830350001181ff8,typicality,NULL
404,1170,0,three_5.png,three_7.png,html-button-response,94,247256,5d1501edf830350001181ff8,typicality,NULL
405,1378,0,nine_7.png,nine_8.png,html-button-response,95,248636,5d1501edf830350001181ff8,typicality,NULL
406,1061,0,eight_1.png,eight_5.png,html-button-response,96,249699,5d1501edf830350001181ff8,typicality,NULL
407,1497,1,eight_8.png,eight_1.png,html-button-response,97,251198,5d1501edf830350001181ff8,typicality,NULL
408,1425,0,seven_9.png,seven_5.png,html-button-response,98,252625,5d1501edf830350001181ff8,typicality,NULL
409,1297,1,six_8.png,six_9.png,html-button-response,99,253927,5d1501edf830350001181ff8,typicality,NULL
410,1425,1,four_2.png,four_7.png,html-button-response,100,255355,5d1501edf830350001181ff8,typicality,NULL
411,1297,1,five_10.png,five_1.png,html-button-response,101,256654,5d1501edf830350001181ff8,typicality,NULL
412,2569,1,four_1.png,four_4.png,html-button-response,102,259225,5d1501edf830350001181ff8,typicality,NULL
413,1547,0," "," ",html-button-response,0,1706,5ccdd982b11510000184a712,typicality,NULL
414,3744,NULL," "," ",instructions,1,5454,5ccdd982b11510000184a712,typicality,NULL
415,6796,NULL,NULL,NULL,survey-text,2,12430,5ccdd982b11510000184a712,typicality,"{"Q0":""}"
416,2331,1,two_9.png,two_8.png,html-button-response,3,14766,5ccdd982b11510000184a712,typicality,NULL
417,2588,1,three_3.png,three_5.png,html-button-response,4,17356,5ccdd982b11510000184a712,typicality,NULL
418,1702,0,five_6.png,five_2.png,html-button-response,5,19061,5ccdd982b11510000184a712,typicality,NULL
419,1761,0,four_9.png,four_10.png,html-button-response,6,20823,5ccdd982b11510000184a712,typicality,NULL
420,2732,0,five_7.png,five_4.png,html-button-response,7,23558,5ccdd982b11510000184a712,typicality,NULL
421,981,1,five_1.png,five_10.png,html-button-response,8,24541,5ccdd982b11510000184a712,typicality,NULL
422,1029,0,three_7.png,three_3.png,html-button-response,9,25572,5ccdd982b11510000184a712,typicality,NULL
423,1333,1,four_2.png,four_7.png,html-button-response,10,26908,5ccdd982b11510000184a712,typicality,NULL
424,1233,1,one_8.png,one_1.png,html-button-response,11,28143,5ccdd982b11510000184a712,typicality,NULL
425,829,1,three_10.png,three_9.png,html-button-response,12,28974,5ccdd982b11510000184a712,typicality,NULL
426,1096,1,seven_8.png,seven_9.png,html-button-response,13,30072,5ccdd982b11510000184a712,typicality,NULL
427,1990,0,four_3.png,four_4.png,html-button-response,14,32064,5ccdd982b11510000184a712,typicality,NULL
428,924,1,seven_10.png,seven_1.png,html-button-response,15,32990,5ccdd982b11510000184a712,typicality,NULL
429,836,1,three_1.png,three_6.png,html-button-response,16,33828,5ccdd982b11510000184a712,typicality,NULL
430,964,1,nine_8.png,nine_10.png,html-button-response,17,34795,5ccdd982b11510000184a712,typicality,NULL
431,1264,0,five_3.png,five_8.png,html-button-response,18,36060,5ccdd982b11510000184a712,typicality,NULL
432,856,0,four_6.png,four_8.png,html-button-response,19,36918,5ccdd982b11510000184a712,typicality,NULL
433,846,1,one_7.png,one_4.png,html-button-response,20,37766,5ccdd982b11510000184a712,typicality,NULL
434,756,0,four_10.png,four_5.png,html-button-response,21,38524,5ccdd982b11510000184a712,typicality,NULL
435,782,1,zero_1.png,zero_4.png,html-button-response,22,39309,5ccdd982b11510000184a712,typicality,NULL
436,936,0,seven_1.png,seven_3.png,html-button-response,23,40248,5ccdd982b11510000184a712,typicality,NULL
437,1073,1,three_4.png,three_8.png,html-button-response,24,41323,5ccdd982b11510000184a712,typicality,NULL
438,999,1,six_10.png,six_3.png,html-button-response,25,42325,5ccdd982b11510000184a712,typicality,NULL
439,1794,0,eight_8.png,eight_7.png,html-button-response,26,44121,5ccdd982b11510000184a712,typicality,NULL
440,2264,1,one_10.png,one_5.png,html-button-response,27,46387,5ccdd982b11510000184a712,typicality,NULL
441,1652,0,zero_2.png,zero_1.png,html-button-response,28,48041,5ccdd982b11510000184a712,typicality,NULL
442,2646,1,nine_7.png,nine_2.png,html-button-response,29,50689,5ccdd982b11510000184a712,typicality,NULL
443,6963,0,six_1.png,six_8.png,html-button-response,30,57648,5ccdd982b11510000184a712,typicality,NULL
444,2957,0,eight_2.png,eight_1.png,html-button-response,31,60607,5ccdd982b11510000184a712,typicality,NULL
445,4105,1,three_9.png,three_7.png,html-button-response,32,64714,5ccdd982b11510000184a712,typicality,NULL
446,4474,1,five_9.png,five_6.png,html-button-response,33,69191,5ccdd982b11510000184a712,typicality,NULL
447,919,1,six_4.png,six_7.png,html-button-response,34,70113,5ccdd982b11510000184a712,typicality,NULL
448,3325,0,seven_9.png,seven_2.png,html-button-response,35,73440,5ccdd982b11510000184a712,typicality,NULL
449,1392,1,eight_5.png,eight_3.png,html-button-response,36,74835,5ccdd982b11510000184a712,typicality,NULL
450,1457,1,zero_3.png,zero_9.png,html-button-response,37,76294,5ccdd982b11510000184a712,typicality,NULL
451,870,1,six_8.png,six_1.png,html-button-response,38,77167,5ccdd982b11510000184a712,typicality,NULL
452,814,0,eight_1.png,eight_8.png,html-button-response,39,77982,5ccdd982b11510000184a712,typicality,NULL
453,1396,0,zero_4.png,zero_6.png,html-button-response,40,79380,5ccdd982b11510000184a712,typicality,NULL
454,1048,1,eight_4.png,eight_6.png,html-button-response,41,80430,5ccdd982b11510000184a712,typicality,NULL
455,933,1,six_3.png,six_5.png,html-button-response,42,81366,5ccdd982b11510000184a712,typicality,NULL
456,1108,1,six_6.png,six_2.png,html-button-response,43,82475,5ccdd982b11510000184a712,typicality,NULL
457,1417,0,three_8.png,three_4.png,html-button-response,44,83894,5ccdd982b11510000184a712,typicality,NULL
458,1229,1,one_7.png,one_1.png,html-button-response,45,85125,5ccdd982b11510000184a712,typicality,NULL
459,1634,1,four_5.png,four_8.png,html-button-response,46,86761,5ccdd982b11510000184a712,typicality,NULL
460,1008,0,eight_9.png,eight_10.png,html-button-response,47,87771,5ccdd982b11510000184a712,typicality,NULL
461,2050,0,six_5.png,six_9.png,html-button-response,48,89824,5ccdd982b11510000184a712,typicality,NULL
462,825,0,two_4.png,two_3.png,html-button-response,49,90651,5ccdd982b11510000184a712,typicality,NULL
463,1094,0,zero_10.png,zero_7.png,html-button-response,50,91747,5ccdd982b11510000184a712,typicality,NULL
464,735,1,nine_5.png,nine_1.png,html-button-response,51,92484,5ccdd982b11510000184a712,typicality,NULL
465,1842,1,zero_5.png,zero_10.png,html-button-response,52,94329,5ccdd982b11510000184a712,typicality,NULL
466,1040,1,eight_5.png,eight_4.png,html-button-response,53,95371,5ccdd982b11510000184a712,typicality,NULL
467,895,1,nine_7.png,nine_4.png,html-button-response,54,96268,5ccdd982b11510000184a712,typicality,NULL
468,1758,1,two_7.png,two_2.png,html-button-response,55,98028,5ccdd982b11510000184a712,typicality,NULL
469,2646,1,nine_6.png,nine_8.png,html-button-response,56,100677,5ccdd982b11510000184a712,typicality,NULL
470,1137,1,nine_9.png,nine_10.png,html-button-response,57,101816,5ccdd982b11510000184a712,typicality,NULL
471,860,0,two_7.png,two_10.png,html-button-response,58,102678,5ccdd982b11510000184a712,typicality,NULL
472,1982,1,seven_3.png,seven_4.png,html-button-response,59,104662,5ccdd982b11510000184a712,typicality,NULL
473,1781,0,five_10.png,five_7.png,html-button-response,60,106445,5ccdd982b11510000184a712,typicality,NULL
474,1226,1,one_2.png,one_6.png,html-button-response,61,107674,5ccdd982b11510000184a712,typicality,NULL
475,1210,0,five_1.png,five_5.png,html-button-response,62,108886,5ccdd982b11510000184a712,typicality,NULL
476,1941,0,three_2.png,three_6.png,html-button-response,63,110828,5ccdd982b11510000184a712,typicality,NULL
477,845,0,nine_4.png,nine_3.png,html-button-response,64,111676,5ccdd982b11510000184a712,typicality,NULL
478,771,0,three_2.png,three_5.png,html-button-response,65,112448,5ccdd982b11510000184a712,typicality,NULL
479,751,1,one_3.png,one_5.png,html-button-response,66,113202,5ccdd982b11510000184a712,typicality,NULL
480,1359,0,two_1.png,two_6.png,html-button-response,67,114563,5ccdd982b11510000184a712,typicality,NULL
481,679,1,one_4.png,one_2.png,html-button-response,68,115244,5ccdd982b11510000184a712,typicality,NULL
482,1600,1,six_9.png,six_10.png,html-button-response,69,116876,5ccdd982b11510000184a712,typicality,NULL
483,1481,0,nine_3.png,nine_1.png,html-button-response,70,118359,5ccdd982b11510000184a712,typicality,NULL
484,897,0,two_9.png,two_3.png,html-button-response,71,119258,5ccdd982b11510000184a712,typicality,NULL
485,620,1,two_8.png,two_5.png,html-button-response,72,119881,5ccdd982b11510000184a712,typicality,NULL
486,775,1,six_4.png,six_6.png,html-button-response,73,120658,5ccdd982b11510000184a712,typicality,NULL
487,1201,1,eight_7.png,eight_3.png,html-button-response,74,121861,5ccdd982b11510000184a712,typicality,NULL
488,715,0,two_10.png,two_6.png,html-button-response,75,122578,5ccdd982b11510000184a712,typicality,NULL
489,1265,1,seven_10.png,seven_7.png,html-button-response,76,123846,5ccdd982b11510000184a712,typicality,NULL
490,1768,0,eight_2.png,eight_9.png,html-button-response,77,125617,5ccdd982b11510000184a712,typicality,NULL
491,749,0,seven_5.png,seven_2.png,html-button-response,78,126367,5ccdd982b11510000184a712,typicality,NULL
492,608,0,seven_8.png,seven_5.png,html-button-response,79,126977,5ccdd982b11510000184a712,typicality,NULL
493,876,0,three_10.png,three_1.png,html-button-response,80,127855,5ccdd982b11510000184a712,typicality,NULL
494,1013,1,one_9.png,one_6.png,html-button-response,81,128870,5ccdd982b11510000184a712,typicality,NULL
495,651,0,six_2.png,six_7.png,html-button-response,82,129524,5ccdd982b11510000184a712,typicality,NULL
496,591,1,seven_6.png,seven_4.png,html-button-response,83,130116,5ccdd982b11510000184a712,typicality,NULL
497,1583,0,two_2.png,two_4.png,html-button-response,84,131702,5ccdd982b11510000184a712,typicality,NULL
498,700,0,zero_6.png,zero_8.png,html-button-response,85,132404,5ccdd982b11510000184a712,typicality,NULL
499,752,1,four_7.png,four_1.png,html-button-response,86,133158,5ccdd982b11510000184a712,typicality,NULL
500,582,0,zero_3.png,zero_9.png,html-button-response,87,133742,5ccdd982b11510000184a712,typicality,NULL
501,915,1,four_6.png,four_4.png,html-button-response,88,134659,5ccdd982b11510000184a712,typicality,NULL
502,654,0,eight_6.png,eight_10.png,html-button-response,89,135315,5ccdd982b11510000184a712,typicality,NULL
503,2199,1,five_4.png,five_9.png,html-button-response,90,137516,5ccdd982b11510000184a712,typicality,NULL
504,1512,1,one_9.png,one_10.png,html-button-response,91,139030,5ccdd982b11510000184a712,typicality,NULL
505,1197,1,nine_9.png,nine_6.png,html-button-response,92,140229,5ccdd982b11510000184a712,typicality,NULL
506,896,1,one_8.png,one_3.png,html-button-response,93,141126,5ccdd982b11510000184a712,typicality,NULL
507,1093,1,four_2.png,four_3.png,html-button-response,94,142222,5ccdd982b11510000184a712,typicality,NULL
508,1196,1,five_5.png,five_3.png,html-button-response,95,143420,5ccdd982b11510000184a712,typicality,NULL
509,1643,0,four_1.png,four_9.png,html-button-response,96,145064,5ccdd982b11510000184a712,typicality,NULL
510,2179,1,two_1.png,two_5.png,html-button-response,97,147245,5ccdd982b11510000184a712,typicality,NULL
511,1636,0,five_8.png,five_2.png,html-button-response,98,148884,5ccdd982b11510000184a712,typicality,NULL
512,1014,0,zero_2.png,zero_7.png,html-button-response,99,149900,5ccdd982b11510000184a712,typicality,NULL
513,1018,0,nine_5.png,nine_2.png,html-button-response,100,150921,5ccdd982b11510000184a712,typicality,NULL
514,1580,1,seven_7.png,seven_6.png,html-button-response,101,152502,5ccdd982b11510000184a712,typicality,NULL
515,985,1,zero_8.png,zero_5.png,html-button-response,102,153489,5ccdd982b11510000184a712,typicality,NULL
516,3023,0," "," ",html-button-response,0,3040,5d14e8b5bc2e6f001b048c50,typicality,NULL
517,23293,NULL," "," ",instructions,1,26333,5d14e8b5bc2e6f001b048c50,typicality,NULL
518,16733,NULL,NULL,NULL,survey-text,2,43085,5d14e8b5bc2e6f001b048c50,typicality,"{"Q0":"You want me to pick the handwritten number that looks unusual or atypical to me."}"
519,5382,1,three_6.png,three_8.png,html-button-response,3,48469,5d14e8b5bc2e6f001b048c50,typicality,NULL
520,3086,0,seven_1.png,seven_2.png,html-button-response,4,51557,5d14e8b5bc2e6f001b048c50,typicality,NULL
521,1279,1,eight_9.png,eight_2.png,html-button-response,5,52837,5d14e8b5bc2e6f001b048c50,typicality,NULL
522,928,0,zero_4.png,zero_3.png,html-button-response,6,53766,5d14e8b5bc2e6f001b048c50,typicality,NULL
523,1023,0,nine_7.png,nine_1.png,html-button-response,7,54789,5d14e8b5bc2e6f001b048c50,typicality,NULL
524,2855,1,five_1.png,five_6.png,html-button-response,8,57645,5d14e8b5bc2e6f001b048c50,typicality,NULL
525,1295,1,seven_7.png,seven_9.png,html-button-response,9,58941,5d14e8b5bc2e6f001b048c50,typicality,NULL
526,1359,1,two_3.png,two_6.png,html-button-response,10,60301,5d14e8b5bc2e6f001b048c50,typicality,NULL
527,1295,0,four_1.png,four_5.png,html-button-response,11,61597,5d14e8b5bc2e6f001b048c50,typicality,NULL
528,1959,1,five_3.png,five_7.png,html-button-response,12,63557,5d14e8b5bc2e6f001b048c50,typicality,NULL
529,1311,1,five_2.png,five_4.png,html-button-response,13,64869,5d14e8b5bc2e6f001b048c50,typicality,NULL
530,1104,1,one_3.png,one_2.png,html-button-response,14,65973,5d14e8b5bc2e6f001b048c50,typicality,NULL
531,847,1,zero_5.png,zero_9.png,html-button-response,15,66821,5d14e8b5bc2e6f001b048c50,typicality,NULL
532,1238,0,three_9.png,three_1.png,html-button-response,16,68060,5d14e8b5bc2e6f001b048c50,typicality,NULL
533,3441,0,four_2.png,four_7.png,html-button-response,17,71501,5d14e8b5bc2e6f001b048c50,typicality,NULL
534,751,1,zero_2.png,zero_5.png,html-button-response,18,72253,5d14e8b5bc2e6f001b048c50,typicality,NULL
535,1343,1,three_9.png,three_5.png,html-button-response,19,73597,5d14e8b5bc2e6f001b048c50,typicality,NULL
536,1038,1,two_5.png,two_2.png,html-button-response,20,74637,5d14e8b5bc2e6f001b048c50,typicality,NULL
537,2656,1,three_3.png,three_8.png,html-button-response,21,77293,5d14e8b5bc2e6f001b048c50,typicality,NULL
538,838,0,six_2.png,six_1.png,html-button-response,22,78133,5d14e8b5bc2e6f001b048c50,typicality,NULL
539,1432,0,three_7.png,three_5.png,html-button-response,23,79565,5d14e8b5bc2e6f001b048c50,typicality,NULL
540,895,1,seven_4.png,seven_5.png,html-button-response,24,80461,5d14e8b5bc2e6f001b048c50,typicality,NULL
541,1103,1,nine_8.png,nine_1.png,html-button-response,25,81565,5d14e8b5bc2e6f001b048c50,typicality,NULL
542,815,1,two_5.png,two_6.png,html-button-response,26,82381,5d14e8b5bc2e6f001b048c50,typicality,NULL
543,1399,0,seven_5.png,seven_4.png,html-button-response,27,83781,5d14e8b5bc2e6f001b048c50,typicality,NULL
544,1816,0,four_5.png,four_1.png,html-button-response,28,85598,5d14e8b5bc2e6f001b048c50,typicality,NULL
545,1519,1,six_1.png,six_3.png,html-button-response,29,87117,5d14e8b5bc2e6f001b048c50,typicality,NULL
546,1230,1,two_1.png,two_7.png,html-button-response,30,88349,5d14e8b5bc2e6f001b048c50,typicality,NULL
547,1496,1,one_10.png,one_8.png,html-button-response,31,89846,5d14e8b5bc2e6f001b048c50,typicality,NULL
548,831,0,eight_2.png,eight_5.png,html-button-response,32,90677,5d14e8b5bc2e6f001b048c50,typicality,NULL
549,975,0,seven_1.png,seven_7.png,html-button-response,33,91653,5d14e8b5bc2e6f001b048c50,typicality,NULL
550,1743,0,five_10.png,five_4.png,html-button-response,34,93397,5d14e8b5bc2e6f001b048c50,typicality,NULL
551,1751,0,four_8.png,four_4.png,html-button-response,35,95149,5d14e8b5bc2e6f001b048c50,typicality,NULL
552,760,0,eight_6.png,eight_3.png,html-button-response,36,95910,5d14e8b5bc2e6f001b048c50,typicality,NULL
553,894,1,nine_9.png,nine_4.png,html-button-response,37,96805,5d14e8b5bc2e6f001b048c50,typicality,NULL
554,1423,0,eight_10.png,eight_4.png,html-button-response,38,98228,5d14e8b5bc2e6f001b048c50,typicality,NULL
555,1921,1,four_4.png,four_9.png,html-button-response,39,100150,5d14e8b5bc2e6f001b048c50,typicality,NULL
556,1102,0,three_2.png,three_10.png,html-button-response,40,101253,5d14e8b5bc2e6f001b048c50,typicality,NULL
557,1272,1,one_3.png,one_6.png,html-button-response,41,102525,5d14e8b5bc2e6f001b048c50,typicality,NULL
558,862,1,eight_8.png,eight_3.png,html-button-response,42,103389,5d14e8b5bc2e6f001b048c50,typicality,NULL
559,1088,0,nine_3.png,nine_6.png,html-button-response,43,104478,5d14e8b5bc2e6f001b048c50,typicality,NULL
560,1887,0,nine_5.png,nine_8.png,html-button-response,44,106365,5d14e8b5bc2e6f001b048c50,typicality,NULL
561,1191,0,four_9.png,four_10.png,html-button-response,45,107557,5d14e8b5bc2e6f001b048c50,typicality,NULL
562,919,1,three_4.png,three_10.png,html-button-response,46,108477,5d14e8b5bc2e6f001b048c50,typicality,NULL
563,1479,1,seven_8.png,seven_9.png,html-button-response,47,109957,5d14e8b5bc2e6f001b048c50,typicality,NULL
564,823,0,five_7.png,five_8.png,html-button-response,48,110781,5d14e8b5bc2e6f001b048c50,typicality,NULL
565,886,0,one_1.png,one_10.png,html-button-response,49,111668,5d14e8b5bc2e6f001b048c50,typicality,NULL
566,784,1,one_7.png,one_1.png,html-button-response,50,112453,5d14e8b5bc2e6f001b048c50,typicality,NULL
567,799,0,zero_4.png,zero_8.png,html-button-response,51,113253,5d14e8b5bc2e6f001b048c50,typicality,NULL
568,1911,1,one_6.png,one_4.png,html-button-response,52,115165,5d14e8b5bc2e6f001b048c50,typicality,NULL
569,1703,1,six_8.png,six_10.png,html-button-response,53,116869,5d14e8b5bc2e6f001b048c50,typicality,NULL
570,1176,1,one_5.png,one_7.png,html-button-response,54,118046,5d14e8b5bc2e6f001b048c50,typicality,NULL
571,1119,0,two_7.png,two_8.png,html-button-response,55,119165,5d14e8b5bc2e6f001b048c50,typicality,NULL
572,1207,0,zero_1.png,zero_8.png,html-button-response,56,120373,5d14e8b5bc2e6f001b048c50,typicality,NULL
573,1383,0,four_3.png,four_6.png,html-button-response,57,121757,5d14e8b5bc2e6f001b048c50,typicality,NULL
574,823,1,zero_7.png,zero_6.png,html-button-response,58,122581,5d14e8b5bc2e6f001b048c50,typicality,NULL
575,1127,1,eight_4.png,eight_10.png,html-button-response,59,123709,5d14e8b5bc2e6f001b048c50,typicality,NULL
576,2015,0,nine_2.png,nine_3.png,html-button-response,60,125725,5d14e8b5bc2e6f001b048c50,typicality,NULL
577,1183,1,two_4.png,two_10.png,html-button-response,61,126910,5d14e8b5bc2e6f001b048c50,typicality,NULL
578,1199,1,zero_10.png,zero_9.png,html-button-response,62,128109,5d14e8b5bc2e6f001b048c50,typicality,NULL
579,815,1,five_9.png,five_6.png,html-button-response,63,128925,5d14e8b5bc2e6f001b048c50,typicality,NULL
580,1383,0,one_2.png,one_4.png,html-button-response,64,130309,5d14e8b5bc2e6f001b048c50,typicality,NULL
581,1087,0,five_2.png,five_9.png,html-button-response,65,131397,5d14e8b5bc2e6f001b048c50,typicality,NULL
582,1590,0,six_10.png,six_4.png,html-button-response,66,132989,5d14e8b5bc2e6f001b048c50,typicality,NULL
583,1048,1,seven_3.png,seven_6.png,html-button-response,67,134037,5d14e8b5bc2e6f001b048c50,typicality,NULL
584,1487,0,five_5.png,five_3.png,html-button-response,68,135525,5d14e8b5bc2e6f001b048c50,typicality,NULL
585,1374,1,six_5.png,six_9.png,html-button-response,69,136901,5d14e8b5bc2e6f001b048c50,typicality,NULL
586,1287,0,four_2.png,four_10.png,html-button-response,70,138189,5d14e8b5bc2e6f001b048c50,typicality,NULL
587,920,1,nine_7.png,nine_4.png,html-button-response,71,139109,5d14e8b5bc2e6f001b048c50,typicality,NULL
588,1351,1,one_9.png,one_5.png,html-button-response,72,140462,5d14e8b5bc2e6f001b048c50,typicality,NULL
589,951,1,zero_3.png,zero_7.png,html-button-response,73,141413,5d14e8b5bc2e6f001b048c50,typicality,NULL
590,1311,0,five_10.png,five_1.png,html-button-response,74,142725,5d14e8b5bc2e6f001b048c50,typicality,NULL
591,1631,1,three_6.png,three_4.png,html-button-response,75,144357,5d14e8b5bc2e6f001b048c50,typicality,NULL
592,1855,1,seven_10.png,seven_6.png,html-button-response,76,146213,5d14e8b5bc2e6f001b048c50,typicality,NULL
593,1032,0,three_7.png,three_3.png,html-button-response,77,147246,5d14e8b5bc2e6f001b048c50,typicality,NULL
594,1382,0,eight_1.png,eight_8.png,html-button-response,78,148629,5d14e8b5bc2e6f001b048c50,typicality,NULL
595,1439,1,two_10.png,two_2.png,html-button-response,79,150069,5d14e8b5bc2e6f001b048c50,typicality,NULL
596,1608,1,three_1.png,three_2.png,html-button-response,80,151678,5d14e8b5bc2e6f001b048c50,typicality,NULL
597,1295,0,two_9.png,two_8.png,html-button-response,81,152973,5d14e8b5bc2e6f001b048c50,typicality,NULL
598,1351,0,nine_5.png,nine_10.png,html-button-response,82,154325,5d14e8b5bc2e6f001b048c50,typicality,NULL
599,983,1,eight_7.png,eight_6.png,html-button-response,83,155310,5d14e8b5bc2e6f001b048c50,typicality,NULL
600,1278,0,five_5.png,five_8.png,html-button-response,84,156589,5d14e8b5bc2e6f001b048c50,typicality,NULL
601,1599,1,four_7.png,four_6.png,html-button-response,85,158189,5d14e8b5bc2e6f001b048c50,typicality,NULL
602,1951,0,two_1.png,two_3.png,html-button-response,86,160141,5d14e8b5bc2e6f001b048c50,typicality,NULL
603,1240,0,eight_1.png,eight_9.png,html-button-response,87,161381,5d14e8b5bc2e6f001b048c50,typicality,NULL
604,1015,1,eight_5.png,eight_7.png,html-button-response,88,162397,5d14e8b5bc2e6f001b048c50,typicality,NULL
605,1311,1,two_4.png,two_9.png,html-button-response,89,163710,5d14e8b5bc2e6f001b048c50,typicality,NULL
606,854,1,nine_6.png,nine_10.png,html-button-response,90,164565,5d14e8b5bc2e6f001b048c50,typicality,NULL
607,943,1,six_5.png,six_2.png,html-button-response,91,165509,5d14e8b5bc2e6f001b048c50,typicality,NULL
608,901,1,one_9.png,one_8.png,html-button-response,92,166412,5d14e8b5bc2e6f001b048c50,typicality,NULL
609,776,1,six_8.png,six_6.png,html-button-response,93,167189,5d14e8b5bc2e6f001b048c50,typicality,NULL
610,728,1,zero_2.png,zero_6.png,html-button-response,94,167917,5d14e8b5bc2e6f001b048c50,typicality,NULL
611,943,1,nine_2.png,nine_9.png,html-button-response,95,168861,5d14e8b5bc2e6f001b048c50,typicality,NULL
612,1855,0,six_9.png,six_7.png,html-button-response,96,170718,5d14e8b5bc2e6f001b048c50,typicality,NULL
613,1031,0,seven_3.png,seven_8.png,html-button-response,97,171750,5d14e8b5bc2e6f001b048c50,typicality,NULL
614,1543,0,six_4.png,six_7.png,html-button-response,98,173294,5d14e8b5bc2e6f001b048c50,typicality,NULL
615,1007,0,seven_10.png,seven_2.png,html-button-response,99,174301,5d14e8b5bc2e6f001b048c50,typicality,NULL
616,1767,0,six_6.png,six_3.png,html-button-response,100,176069,5d14e8b5bc2e6f001b048c50,typicality,NULL
617,863,0,zero_10.png,zero_1.png,html-button-response,101,176934,5d14e8b5bc2e6f001b048c50,typicality,NULL
618,2135,0,four_3.png,four_8.png,html-button-response,102,179070,5d14e8b5bc2e6f001b048c50,typicality,NULL
619,2357,0," "," ",html-button-response,0,2372,5cf9ffc18af2720019b03310,typicality,NULL
620,16266,NULL," "," ",instructions,1,18641,5cf9ffc18af2720019b03310,typicality,NULL
621,32052,NULL,NULL,NULL,survey-text,2,50705,5cf9ffc18af2720019b03310,typicality,"{"Q0":"Which image looks \"strange\" or \"unusual.\" Or even \"different\" from what I've seen before."}"
622,4335,0,zero_1.png,zero_3.png,html-button-response,3,55043,5cf9ffc18af2720019b03310,typicality,NULL
623,2205,0,nine_5.png,nine_2.png,html-button-response,4,57251,5cf9ffc18af2720019b03310,typicality,NULL
624,2185,0,five_8.png,five_4.png,html-button-response,5,59437,5cf9ffc18af2720019b03310,typicality,NULL
625,1495,1,nine_2.png,nine_5.png,html-button-response,6,60933,5cf9ffc18af2720019b03310,typicality,NULL
626,2796,1,seven_10.png,seven_1.png,html-button-response,7,63731,5cf9ffc18af2720019b03310,typicality,NULL
627,2271,0,zero_9.png,zero_3.png,html-button-response,8,66003,5cf9ffc18af2720019b03310,typicality,NULL
628,1285,0,one_5.png,one_6.png,html-button-response,9,67289,5cf9ffc18af2720019b03310,typicality,NULL
629,1968,0,three_10.png,three_1.png,html-button-response,10,69258,5cf9ffc18af2720019b03310,typicality,NULL
630,2292,0,four_9.png,four_8.png,html-button-response,11,71551,5cf9ffc18af2720019b03310,typicality,NULL
631,1282,0,six_1.png,six_9.png,html-button-response,12,72835,5cf9ffc18af2720019b03310,typicality,NULL
632,2575,1,nine_3.png,nine_9.png,html-button-response,13,75411,5cf9ffc18af2720019b03310,typicality,NULL
633,2701,1,one_8.png,one_9.png,html-button-response,14,78113,5cf9ffc18af2720019b03310,typicality,NULL
634,2713,0,seven_8.png,seven_7.png,html-button-response,15,80827,5cf9ffc18af2720019b03310,typicality,NULL
635,1592,1,two_9.png,two_1.png,html-button-response,16,82421,5cf9ffc18af2720019b03310,typicality,NULL
636,1052,0,seven_9.png,seven_7.png,html-button-response,17,83474,5cf9ffc18af2720019b03310,typicality,NULL
637,1379,1,one_3.png,one_7.png,html-button-response,18,84854,5cf9ffc18af2720019b03310,typicality,NULL
638,966,0,three_9.png,three_5.png,html-button-response,19,85822,5cf9ffc18af2720019b03310,typicality,NULL
639,1347,1,eight_4.png,eight_1.png,html-button-response,20,87171,5cf9ffc18af2720019b03310,typicality,NULL
640,1550,0,six_7.png,six_10.png,html-button-response,21,88722,5cf9ffc18af2720019b03310,typicality,NULL
641,981,1,seven_6.png,seven_5.png,html-button-response,22,89704,5cf9ffc18af2720019b03310,typicality,NULL
642,1689,1,four_4.png,four_1.png,html-button-response,23,91394,5cf9ffc18af2720019b03310,typicality,NULL
643,1309,0,nine_7.png,nine_8.png,html-button-response,24,92704,5cf9ffc18af2720019b03310,typicality,NULL
644,1071,1,one_4.png,one_1.png,html-button-response,25,93776,5cf9ffc18af2720019b03310,typicality,NULL
645,1560,0,two_7.png,two_3.png,html-button-response,26,95338,5cf9ffc18af2720019b03310,typicality,NULL
646,849,0,nine_4.png,nine_8.png,html-button-response,27,96188,5cf9ffc18af2720019b03310,typicality,NULL
647,1734,0,two_8.png,two_9.png,html-button-response,28,97924,5cf9ffc18af2720019b03310,typicality,NULL
648,5697,1,five_7.png,five_8.png,html-button-response,29,103622,5cf9ffc18af2720019b03310,typicality,NULL
649,2848,1,two_4.png,two_10.png,html-button-response,30,106472,5cf9ffc18af2720019b03310,typicality,NULL
650,2011,1,zero_8.png,zero_10.png,html-button-response,31,108484,5cf9ffc18af2720019b03310,typicality,NULL
651,1330,0,five_1.png,five_7.png,html-button-response,32,109816,5cf9ffc18af2720019b03310,typicality,NULL
652,1119,1,two_6.png,two_1.png,html-button-response,33,110936,5cf9ffc18af2720019b03310,typicality,NULL
653,1287,1,three_7.png,three_2.png,html-button-response,34,112224,5cf9ffc18af2720019b03310,typicality,NULL
654,2048,1,seven_4.png,seven_5.png,html-button-response,35,114274,5cf9ffc18af2720019b03310,typicality,NULL
655,729,0,three_2.png,three_3.png,html-button-response,36,115004,5cf9ffc18af2720019b03310,typicality,NULL
656,1234,0,three_4.png,three_1.png,html-button-response,37,116239,5cf9ffc18af2720019b03310,typicality,NULL
657,1383,1,three_4.png,three_6.png,html-button-response,38,117624,5cf9ffc18af2720019b03310,typicality,NULL
658,1775,1,three_3.png,three_9.png,html-button-response,39,119400,5cf9ffc18af2720019b03310,typicality,NULL
659,1476,1,four_7.png,four_3.png,html-button-response,40,120878,5cf9ffc18af2720019b03310,typicality,NULL
660,1131,1,eight_5.png,eight_8.png,html-button-response,41,122010,5cf9ffc18af2720019b03310,typicality,NULL
661,2275,0,one_7.png,one_2.png,html-button-response,42,124286,5cf9ffc18af2720019b03310,typicality,NULL
662,2442,1,nine_1.png,nine_10.png,html-button-response,43,126729,5cf9ffc18af2720019b03310,typicality,NULL
663,1529,1,six_5.png,six_9.png,html-button-response,44,128260,5cf9ffc18af2720019b03310,typicality,NULL
664,1092,0,three_6.png,three_10.png,html-button-response,45,129353,5cf9ffc18af2720019b03310,typicality,NULL
665,841,0,six_2.png,six_6.png,html-button-response,46,130195,5cf9ffc18af2720019b03310,typicality,NULL
666,957,1,zero_6.png,zero_10.png,html-button-response,47,131153,5cf9ffc18af2720019b03310,typicality,NULL
667,920,1,five_9.png,five_10.png,html-button-response,48,132074,5cf9ffc18af2720019b03310,typicality,NULL
668,1235,1,two_8.png,two_4.png,html-button-response,49,133311,5cf9ffc18af2720019b03310,typicality,NULL
669,1760,0,eight_9.png,eight_5.png,html-button-response,50,135072,5cf9ffc18af2720019b03310,typicality,NULL
670,2836,0,six_5.png,six_3.png,html-button-response,51,137911,5cf9ffc18af2720019b03310,typicality,NULL
671,1082,1,four_5.png,four_10.png,html-button-response,52,138995,5cf9ffc18af2720019b03310,typicality,NULL
672,942,0,one_2.png,one_10.png,html-button-response,53,139939,5cf9ffc18af2720019b03310,typicality,NULL
673,929,1,three_8.png,three_7.png,html-button-response,54,140869,5cf9ffc18af2720019b03310,typicality,NULL
674,830,0,eight_6.png,eight_1.png,html-button-response,55,141701,5cf9ffc18af2720019b03310,typicality,NULL
675,2028,1,seven_10.png,seven_6.png,html-button-response,56,143731,5cf9ffc18af2720019b03310,typicality,NULL
676,1473,0,nine_9.png,nine_3.png,html-button-response,57,145205,5cf9ffc18af2720019b03310,typicality,NULL
677,1133,0,five_1.png,five_2.png,html-button-response,58,146339,5cf9ffc18af2720019b03310,typicality,NULL
678,1485,0,eight_4.png,eight_9.png,html-button-response,59,147825,5cf9ffc18af2720019b03310,typicality,NULL
679,828,0,nine_4.png,nine_1.png,html-button-response,60,148655,5cf9ffc18af2720019b03310,typicality,NULL
680,1036,0,seven_2.png,seven_8.png,html-button-response,61,149692,5cf9ffc18af2720019b03310,typicality,NULL
681,2356,1,four_8.png,four_2.png,html-button-response,62,152050,5cf9ffc18af2720019b03310,typicality,NULL
682,1418,1,five_6.png,five_5.png,html-button-response,63,153471,5cf9ffc18af2720019b03310,typicality,NULL
683,3717,0,one_9.png,one_3.png,html-button-response,64,157189,5cf9ffc18af2720019b03310,typicality,NULL
684,1048,0,four_9.png,four_6.png,html-button-response,65,158239,5cf9ffc18af2720019b03310,typicality,NULL
685,1184,0,eight_10.png,eight_2.png,html-button-response,66,159425,5cf9ffc18af2720019b03310,typicality,NULL
686,777,0,three_8.png,three_5.png,html-button-response,67,160203,5cf9ffc18af2720019b03310,typicality,NULL
687,940,1,zero_7.png,zero_4.png,html-button-response,68,161145,5cf9ffc18af2720019b03310,typicality,NULL
688,1185,1,five_4.png,five_3.png,html-button-response,69,162333,5cf9ffc18af2720019b03310,typicality,NULL
689,1047,0,five_10.png,five_3.png,html-button-response,70,163381,5cf9ffc18af2720019b03310,typicality,NULL
690,1854,0,eight_10.png,eight_2.png,html-button-response,71,165235,5cf9ffc18af2720019b03310,typicality,NULL
691,1694,0,zero_8.png,zero_1.png,html-button-response,72,166931,5cf9ffc18af2720019b03310,typicality,NULL
692,4127,0,six_7.png,six_4.png,html-button-response,73,171059,5cf9ffc18af2720019b03310,typicality,NULL
693,1111,0,six_6.png,six_3.png,html-button-response,74,172172,5cf9ffc18af2720019b03310,typicality,NULL
694,2249,0,seven_3.png,seven_1.png,html-button-response,75,174422,5cf9ffc18af2720019b03310,typicality,NULL
695,1323,1,six_10.png,six_2.png,html-button-response,76,175746,5cf9ffc18af2720019b03310,typicality,NULL
696,1401,0,eight_8.png,eight_6.png,html-button-response,77,177149,5cf9ffc18af2720019b03310,typicality,NULL
697,1142,1,one_6.png,one_5.png,html-button-response,78,178292,5cf9ffc18af2720019b03310,typicality,NULL
698,839,0,zero_4.png,zero_2.png,html-button-response,79,179132,5cf9ffc18af2720019b03310,typicality,NULL
699,2170,0,eight_7.png,eight_3.png,html-button-response,80,181304,5cf9ffc18af2720019b03310,typicality,NULL
700,1061,0,two_5.png,two_7.png,html-button-response,81,182366,5cf9ffc18af2720019b03310,typicality,NULL
701,1387,0,five_9.png,five_2.png,html-button-response,82,183754,5cf9ffc18af2720019b03310,typicality,NULL
702,1530,1,six_8.png,six_1.png,html-button-response,83,185286,5cf9ffc18af2720019b03310,typicality,NULL
703,1377,0,two_5.png,two_2.png,html-button-response,84,186665,5cf9ffc18af2720019b03310,typicality,NULL
704,1688,1,eight_3.png,eight_7.png,html-button-response,85,188354,5cf9ffc18af2720019b03310,typicality,NULL
705,1045,1,zero_2.png,zero_9.png,html-button-response,86,189400,5cf9ffc18af2720019b03310,typicality,NULL
706,1688,0,two_2.png,two_3.png,html-button-response,87,191090,5cf9ffc18af2720019b03310,typicality,NULL
707,1243,0,zero_6.png,zero_5.png,html-button-response,88,192334,5cf9ffc18af2720019b03310,typicality,NULL
708,1141,0,one_1.png,one_4.png,html-button-response,89,193476,5cf9ffc18af2720019b03310,typicality,NULL
709,2843,1,one_8.png,one_10.png,html-button-response,90,196320,5cf9ffc18af2720019b03310,typicality,NULL
710,1060,0,zero_5.png,zero_7.png,html-button-response,91,197382,5cf9ffc18af2720019b03310,typicality,NULL
711,2457,1,four_7.png,four_1.png,html-button-response,92,199840,5cf9ffc18af2720019b03310,typicality,NULL
712,1652,1,seven_2.png,seven_4.png,html-button-response,93,201494,5cf9ffc18af2720019b03310,typicality,NULL
713,1331,0,nine_7.png,nine_6.png,html-button-response,94,202826,5cf9ffc18af2720019b03310,typicality,NULL
714,1701,1,five_6.png,five_5.png,html-button-response,95,204528,5cf9ffc18af2720019b03310,typicality,NULL
715,2027,1,nine_6.png,nine_10.png,html-button-response,96,206556,5cf9ffc18af2720019b03310,typicality,NULL
716,902,0,seven_9.png,seven_3.png,html-button-response,97,207460,5cf9ffc18af2720019b03310,typicality,NULL
717,1193,1,four_4.png,four_3.png,html-button-response,98,208654,5cf9ffc18af2720019b03310,typicality,NULL
718,2746,0,two_6.png,two_10.png,html-button-response,99,211401,5cf9ffc18af2720019b03310,typicality,NULL
719,989,0,four_6.png,four_2.png,html-button-response,100,212392,5cf9ffc18af2720019b03310,typicality,NULL
720,1125,0,four_10.png,four_5.png,html-button-response,101,213518,5cf9ffc18af2720019b03310,typicality,NULL
721,2770,0,six_8.png,six_4.png,html-button-response,102,216289,5cf9ffc18af2720019b03310,typicality,NULL
722,5015,0," "," ",html-button-response,0,5034,5d1002fc0277ff00192f76dd,typicality,NULL
723,54565,NULL," "," ",instructions,1,59604,5d1002fc0277ff00192f76dd,typicality,NULL
724,29722,NULL,NULL,NULL,survey-text,2,89348,5d1002fc0277ff00192f76dd,typicality,"{"Q0":"The most unusual and less recognizable form of handwritten"}"
725,2225,0,five_5.png,five_8.png,html-button-response,3,91578,5d1002fc0277ff00192f76dd,typicality,NULL
726,1260,1,three_5.png,three_6.png,html-button-response,4,92840,5d1002fc0277ff00192f76dd,typicality,NULL
727,1689,0,seven_9.png,seven_4.png,html-button-response,5,94534,5d1002fc0277ff00192f76dd,typicality,NULL
728,2070,0,four_2.png,four_6.png,html-button-response,6,96610,5d1002fc0277ff00192f76dd,typicality,NULL
729,2914,0,two_7.png,two_3.png,html-button-response,7,99532,5d1002fc0277ff00192f76dd,typicality,NULL
730,1075,0,two_2.png,two_4.png,html-button-response,8,100612,5d1002fc0277ff00192f76dd,typicality,NULL
731,827,1,three_4.png,three_9.png,html-button-response,9,101444,5d1002fc0277ff00192f76dd,typicality,NULL
732,1997,1,eight_3.png,eight_1.png,html-button-response,10,103445,5d1002fc0277ff00192f76dd,typicality,NULL
733,1666,0,one_4.png,one_10.png,html-button-response,11,105115,5d1002fc0277ff00192f76dd,typicality,NULL
734,1173,1,two_9.png,two_1.png,html-button-response,12,106294,5d1002fc0277ff00192f76dd,typicality,NULL
735,1423,0,seven_8.png,seven_10.png,html-button-response,13,107723,5d1002fc0277ff00192f76dd,typicality,NULL
736,1633,0,nine_3.png,nine_2.png,html-button-response,14,109362,5d1002fc0277ff00192f76dd,typicality,NULL
737,1215,0,eight_6.png,eight_3.png,html-button-response,15,110581,5d1002fc0277ff00192f76dd,typicality,NULL
738,978,1,six_10.png,six_7.png,html-button-response,16,111563,5d1002fc0277ff00192f76dd,typicality,NULL
739,1072,0,zero_9.png,zero_7.png,html-button-response,17,112641,5d1002fc0277ff00192f76dd,typicality,NULL
740,959,1,seven_2.png,seven_5.png,html-button-response,18,113605,5d1002fc0277ff00192f76dd,typicality,NULL
741,1475,0,one_10.png,one_3.png,html-button-response,19,115083,5d1002fc0277ff00192f76dd,typicality,NULL
742,1863,1,three_4.png,three_3.png,html-button-response,20,116950,5d1002fc0277ff00192f76dd,typicality,NULL
743,1036,1,seven_7.png,seven_4.png,html-button-response,21,117990,5d1002fc0277ff00192f76dd,typicality,NULL
744,1743,1,three_1.png,three_5.png,html-button-response,22,119738,5d1002fc0277ff00192f76dd,typicality,NULL
745,946,0,zero_4.png,zero_1.png,html-button-response,23,120688,5d1002fc0277ff00192f76dd,typicality,NULL
746,1220,0,nine_10.png,nine_8.png,html-button-response,24,121913,5d1002fc0277ff00192f76dd,typicality,NULL
747,1375,1,nine_10.png,nine_4.png,html-button-response,25,123293,5d1002fc0277ff00192f76dd,typicality,NULL
748,1019,1,zero_9.png,zero_10.png,html-button-response,26,124318,5d1002fc0277ff00192f76dd,typicality,NULL
749,1021,1,three_1.png,three_8.png,html-button-response,27,125344,5d1002fc0277ff00192f76dd,typicality,NULL
750,995,0,four_3.png,four_1.png,html-button-response,28,126345,5d1002fc0277ff00192f76dd,typicality,NULL
751,2111,1,six_4.png,six_2.png,html-button-response,29,128461,5d1002fc0277ff00192f76dd,typicality,NULL
752,1154,1,two_3.png,two_7.png,html-button-response,30,129621,5d1002fc0277ff00192f76dd,typicality,NULL
753,962,1,four_9.png,four_1.png,html-button-response,31,130586,5d1002fc0277ff00192f76dd,typicality,NULL
754,381,0,three_2.png,three_3.png,html-button-response,32,130972,5d1002fc0277ff00192f76dd,typicality,NULL
755,324,1,five_8.png,five_7.png,html-button-response,33,131299,5d1002fc0277ff00192f76dd,typicality,NULL
756,280,0,two_6.png,two_4.png,html-button-response,34,131581,5d1002fc0277ff00192f76dd,typicality,NULL
757,334,1,zero_5.png,zero_3.png,html-button-response,35,131919,5d1002fc0277ff00192f76dd,typicality,NULL
758,289,0,one_9.png,one_1.png,html-button-response,36,132214,5d1002fc0277ff00192f76dd,typicality,NULL
759,320,1,five_7.png,five_1.png,html-button-response,37,132538,5d1002fc0277ff00192f76dd,typicality,NULL
760,289,0,nine_8.png,nine_6.png,html-button-response,38,132832,5d1002fc0277ff00192f76dd,typicality,NULL
761,318,1,one_9.png,one_2.png,html-button-response,39,133153,5d1002fc0277ff00192f76dd,typicality,NULL
762,266,0,eight_6.png,eight_9.png,html-button-response,40,133421,5d1002fc0277ff00192f76dd,typicality,NULL
763,332,1,five_4.png,five_3.png,html-button-response,41,133756,5d1002fc0277ff00192f76dd,typicality,NULL
764,261,0,eight_10.png,eight_2.png,html-button-response,42,134020,5d1002fc0277ff00192f76dd,typicality,NULL
765,878,1,seven_3.png,seven_2.png,html-button-response,43,134900,5d1002fc0277ff00192f76dd,typicality,NULL
766,358,0,six_5.png,six_8.png,html-button-response,44,135263,5d1002fc0277ff00192f76dd,typicality,NULL
767,432,1,two_8.png,two_10.png,html-button-response,45,135699,5d1002fc0277ff00192f76dd,typicality,NULL
768,327,0,four_7.png,four_9.png,html-button-response,46,136033,5d1002fc0277ff00192f76dd,typicality,NULL
769,444,1,five_2.png,five_3.png,html-button-response,47,136481,5d1002fc0277ff00192f76dd,typicality,NULL
770,396,0,one_3.png,one_6.png,html-button-response,48,136881,5d1002fc0277ff00192f76dd,typicality,NULL
771,449,1,two_5.png,two_8.png,html-button-response,49,137335,5d1002fc0277ff00192f76dd,typicality,NULL
772,291,0,eight_4.png,eight_5.png,html-button-response,50,137631,5d1002fc0277ff00192f76dd,typicality,NULL
773,579,1,eight_4.png,eight_9.png,html-button-response,51,138214,5d1002fc0277ff00192f76dd,typicality,NULL
774,449,0,three_9.png,three_7.png,html-button-response,52,138667,5d1002fc0277ff00192f76dd,typicality,NULL
775,797,0,two_6.png,two_5.png,html-button-response,53,139468,5d1002fc0277ff00192f76dd,typicality,NULL
776,1140,1,six_6.png,six_8.png,html-button-response,54,140613,5d1002fc0277ff00192f76dd,typicality,NULL
777,551,0,four_5.png,four_6.png,html-button-response,55,141168,5d1002fc0277ff00192f76dd,typicality,NULL
778,612,1,seven_10.png,seven_9.png,html-button-response,56,141784,5d1002fc0277ff00192f76dd,typicality,NULL
779,663,0,five_6.png,five_10.png,html-button-response,57,142452,5d1002fc0277ff00192f76dd,typicality,NULL
780,743,1,nine_6.png,nine_5.png,html-button-response,58,143200,5d1002fc0277ff00192f76dd,typicality,NULL
781,541,0,zero_7.png,zero_8.png,html-button-response,59,143745,5d1002fc0277ff00192f76dd,typicality,NULL
782,698,1,seven_7.png,seven_6.png,html-button-response,60,144448,5d1002fc0277ff00192f76dd,typicality,NULL
783,648,0,zero_6.png,zero_2.png,html-button-response,61,145101,5d1002fc0277ff00192f76dd,typicality,NULL
784,761,1,nine_3.png,nine_9.png,html-button-response,62,145866,5d1002fc0277ff00192f76dd,typicality,NULL
785,691,0,two_10.png,two_2.png,html-button-response,63,146562,5d1002fc0277ff00192f76dd,typicality,NULL
786,596,1,six_3.png,six_5.png,html-button-response,64,147164,5d1002fc0277ff00192f76dd,typicality,NULL
787,889,0,one_1.png,one_4.png,html-button-response,65,148056,5d1002fc0277ff00192f76dd,typicality,NULL
788,729,1,one_6.png,one_5.png,html-button-response,66,148787,5d1002fc0277ff00192f76dd,typicality,NULL
789,723,0,seven_3.png,seven_1.png,html-button-response,67,149514,5d1002fc0277ff00192f76dd,typicality,NULL
790,704,0,nine_7.png,nine_1.png,html-button-response,68,150222,5d1002fc0277ff00192f76dd,typicality,NULL
791,675,1,seven_6.png,seven_1.png,html-button-response,69,150900,5d1002fc0277ff00192f76dd,typicality,NULL
792,605,0,nine_9.png,nine_7.png,html-button-response,70,151510,5d1002fc0277ff00192f76dd,typicality,NULL
793,600,1,five_1.png,five_9.png,html-button-response,71,152116,5d1002fc0277ff00192f76dd,typicality,NULL
794,917,1,eight_10.png,eight_7.png,html-button-response,72,153037,5d1002fc0277ff00192f76dd,typicality,NULL
795,863,0,one_8.png,one_2.png,html-button-response,73,153904,5d1002fc0277ff00192f76dd,typicality,NULL
796,880,1,six_4.png,six_9.png,html-button-response,74,154789,5d1002fc0277ff00192f76dd,typicality,NULL
797,688,0,seven_5.png,seven_8.png,html-button-response,75,155483,5d1002fc0277ff00192f76dd,typicality,NULL
798,763,1,eight_8.png,eight_1.png,html-button-response,76,156249,5d1002fc0277ff00192f76dd,typicality,NULL
799,728,1,zero_3.png,zero_10.png,html-button-response,77,156982,5d1002fc0277ff00192f76dd,typicality,NULL
800,730,1,four_5.png,four_10.png,html-button-response,78,157716,5d1002fc0277ff00192f76dd,typicality,NULL
801,682,1,zero_5.png,zero_4.png,html-button-response,79,158403,5d1002fc0277ff00192f76dd,typicality,NULL
802,724,1,four_7.png,four_3.png,html-button-response,80,159132,5d1002fc0277ff00192f76dd,typicality,NULL
803,584,0,six_1.png,six_3.png,html-button-response,81,159719,5d1002fc0277ff00192f76dd,typicality,NULL
804,711,1,zero_6.png,zero_2.png,html-button-response,82,160436,5d1002fc0277ff00192f76dd,typicality,NULL
805,658,1,eight_5.png,eight_2.png,html-button-response,83,161099,5d1002fc0277ff00192f76dd,typicality,NULL
806,847,0,three_6.png,three_8.png,html-button-response,84,161950,5d1002fc0277ff00192f76dd,typicality,NULL
807,749,1,five_9.png,five_10.png,html-button-response,85,162703,5d1002fc0277ff00192f76dd,typicality,NULL
808,745,0,nine_4.png,nine_1.png,html-button-response,86,163452,5d1002fc0277ff00192f76dd,typicality,NULL
809,811,0,two_1.png,two_9.png,html-button-response,87,164266,5d1002fc0277ff00192f76dd,typicality,NULL
810,1096,1,eight_8.png,eight_7.png,html-button-response,88,165367,5d1002fc0277ff00192f76dd,typicality,NULL
811,795,0,six_2.png,six_6.png,html-button-response,89,166167,5d1002fc0277ff00192f76dd,typicality,NULL
812,1014,1,five_5.png,five_4.png,html-button-response,90,167185,5d1002fc0277ff00192f76dd,typicality,NULL
813,1861,1,nine_2.png,nine_5.png,html-button-response,91,169051,5d1002fc0277ff00192f76dd,typicality,NULL
814,745,0,zero_1.png,zero_8.png,html-button-response,92,169800,5d1002fc0277ff00192f76dd,typicality,NULL
815,716,0,five_6.png,five_2.png,html-button-response,93,170520,5d1002fc0277ff00192f76dd,typicality,NULL
816,720,1,three_10.png,three_2.png,html-button-response,94,171246,5d1002fc0277ff00192f76dd,typicality,NULL
817,696,0,four_10.png,four_8.png,html-button-response,95,171951,5d1002fc0277ff00192f76dd,typicality,NULL
818,768,1,four_2.png,four_4.png,html-button-response,96,172724,5d1002fc0277ff00192f76dd,typicality,NULL
819,961,0,four_4.png,four_8.png,html-button-response,97,173689,5d1002fc0277ff00192f76dd,typicality,NULL
820,627,0,one_7.png,one_5.png,html-button-response,98,174320,5d1002fc0277ff00192f76dd,typicality,NULL
821,689,1,three_10.png,three_7.png,html-button-response,99,175017,5d1002fc0277ff00192f76dd,typicality,NULL
822,880,0,six_7.png,six_10.png,html-button-response,100,175901,5d1002fc0277ff00192f76dd,typicality,NULL
823,719,0,six_1.png,six_9.png,html-button-response,101,176624,5d1002fc0277ff00192f76dd,typicality,NULL
824,1010,1,one_8.png,one_7.png,html-button-response,102,177636,5d1002fc0277ff00192f76dd,typicality,NULL
825,2606,0," "," ",html-button-response,0,2627,5a9675bfb5e2110001c69f33,typicality,NULL
826,54061,NULL," "," ",instructions,1,56689,5a9675bfb5e2110001c69f33,typicality,NULL
827,37190,NULL,NULL,NULL,survey-text,2,93887,5a9675bfb5e2110001c69f33,typicality,"{"Q0":"You want us to click on on the image that looks the weirdest."}"
828,3823,1,zero_5.png,zero_6.png,html-button-response,3,97713,5a9675bfb5e2110001c69f33,typicality,NULL
829,4134,1,nine_8.png,nine_7.png,html-button-response,4,101849,5a9675bfb5e2110001c69f33,typicality,NULL
830,2862,0,one_6.png,one_10.png,html-button-response,5,104713,5a9675bfb5e2110001c69f33,typicality,NULL
831,3830,0,nine_3.png,nine_2.png,html-button-response,6,108544,5a9675bfb5e2110001c69f33,typicality,NULL
832,2214,1,six_3.png,six_10.png,html-button-response,7,110760,5a9675bfb5e2110001c69f33,typicality,NULL
833,3088,0,three_2.png,three_9.png,html-button-response,8,113849,5a9675bfb5e2110001c69f33,typicality,NULL
834,1391,1,seven_10.png,seven_5.png,html-button-response,9,115241,5a9675bfb5e2110001c69f33,typicality,NULL
835,6846,0,seven_1.png,seven_10.png,html-button-response,10,122089,5a9675bfb5e2110001c69f33,typicality,NULL
836,3734,1,one_3.png,one_5.png,html-button-response,11,125824,5a9675bfb5e2110001c69f33,typicality,NULL
837,3488,1,eight_10.png,eight_7.png,html-button-response,12,129312,5a9675bfb5e2110001c69f33,typicality,NULL
838,3286,1,five_8.png,five_9.png,html-button-response,13,132600,5a9675bfb5e2110001c69f33,typicality,NULL
839,4095,0,two_8.png,two_4.png,html-button-response,14,136696,5a9675bfb5e2110001c69f33,typicality,NULL
840,2166,1,zero_7.png,zero_9.png,html-button-response,15,138864,5a9675bfb5e2110001c69f33,typicality,NULL
841,1351,1,one_2.png,one_4.png,html-button-response,16,140216,5a9675bfb5e2110001c69f33,typicality,NULL
842,1934,0,one_3.png,one_8.png,html-button-response,17,142151,5a9675bfb5e2110001c69f33,typicality,NULL
843,1679,1,one_10.png,one_5.png,html-button-response,18,143831,5a9675bfb5e2110001c69f33,typicality,NULL
844,1575,1,seven_6.png,seven_1.png,html-button-response,19,145407,5a9675bfb5e2110001c69f33,typicality,NULL
845,2624,0,seven_4.png,seven_7.png,html-button-response,20,148032,5a9675bfb5e2110001c69f33,typicality,NULL
846,1823,0,nine_9.png,nine_8.png,html-button-response,21,149856,5a9675bfb5e2110001c69f33,typicality,NULL
847,3311,0,nine_5.png,nine_1.png,html-button-response,22,153168,5a9675bfb5e2110001c69f33,typicality,NULL
848,3574,1,three_3.png,three_10.png,html-button-response,23,156744,5a9675bfb5e2110001c69f33,typicality,NULL
849,1862,0,five_5.png,five_3.png,html-button-response,24,158607,5a9675bfb5e2110001c69f33,typicality,NULL
850,1183,1,three_4.png,three_7.png,html-button-response,25,159791,5a9675bfb5e2110001c69f33,typicality,NULL
851,3127,1,six_8.png,six_2.png,html-button-response,26,162919,5a9675bfb5e2110001c69f33,typicality,NULL
852,2295,0,three_10.png,three_1.png,html-button-response,27,165216,5a9675bfb5e2110001c69f33,typicality,NULL
853,2967,0,eight_8.png,eight_9.png,html-button-response,28,168184,5a9675bfb5e2110001c69f33,typicality,NULL
854,974,1,zero_7.png,zero_10.png,html-button-response,29,169160,5a9675bfb5e2110001c69f33,typicality,NULL
855,2382,0,zero_2.png,zero_1.png,html-button-response,30,171544,5a9675bfb5e2110001c69f33,typicality,NULL
856,2062,1,six_4.png,six_6.png,html-button-response,31,173608,5a9675bfb5e2110001c69f33,typicality,NULL
857,1534,0,seven_2.png,seven_3.png,html-button-response,32,175144,5a9675bfb5e2110001c69f33,typicality,NULL
858,1255,1,nine_6.png,nine_4.png,html-button-response,33,176400,5a9675bfb5e2110001c69f33,typicality,NULL
859,1038,0,zero_6.png,zero_8.png,html-button-response,34,177440,5a9675bfb5e2110001c69f33,typicality,NULL
860,2807,0,six_8.png,six_10.png,html-button-response,35,180247,5a9675bfb5e2110001c69f33,typicality,NULL
861,958,0,six_6.png,six_9.png,html-button-response,36,181207,5a9675bfb5e2110001c69f33,typicality,NULL
862,7344,0,nine_9.png,nine_4.png,html-button-response,37,188552,5a9675bfb5e2110001c69f33,typicality,NULL
863,1079,1,eight_5.png,eight_2.png,html-button-response,38,189633,5a9675bfb5e2110001c69f33,typicality,NULL
864,2022,1,nine_5.png,nine_3.png,html-button-response,39,191657,5a9675bfb5e2110001c69f33,typicality,NULL
865,4206,1,four_3.png,four_2.png,html-button-response,40,195864,5a9675bfb5e2110001c69f33,typicality,NULL
866,1422,1,seven_7.png,seven_5.png,html-button-response,41,197288,5a9675bfb5e2110001c69f33,typicality,NULL
867,1751,0,eight_8.png,eight_9.png,html-button-response,42,199040,5a9675bfb5e2110001c69f33,typicality,NULL
868,3024,1,four_5.png,four_3.png,html-button-response,43,202065,5a9675bfb5e2110001c69f33,typicality,NULL
869,2039,0,two_6.png,two_10.png,html-button-response,44,204105,5a9675bfb5e2110001c69f33,typicality,NULL
870,7078,1,two_7.png,two_8.png,html-button-response,45,211185,5a9675bfb5e2110001c69f33,typicality,NULL
871,1086,0,eight_1.png,eight_5.png,html-button-response,46,212273,5a9675bfb5e2110001c69f33,typicality,NULL
872,3382,1,nine_6.png,nine_2.png,html-button-response,47,215656,5a9675bfb5e2110001c69f33,typicality,NULL
873,1007,1,five_2.png,five_6.png,html-button-response,48,216665,5a9675bfb5e2110001c69f33,typicality,NULL
874,1943,1,one_9.png,one_6.png,html-button-response,49,218609,5a9675bfb5e2110001c69f33,typicality,NULL
875,3319,0,nine_10.png,nine_1.png,html-button-response,50,221929,5a9675bfb5e2110001c69f33,typicality,NULL
876,2551,0,six_1.png,six_9.png,html-button-response,51,224481,5a9675bfb5e2110001c69f33,typicality,NULL
877,3998,1,three_6.png,three_9.png,html-button-response,52,228481,5a9675bfb5e2110001c69f33,typicality,NULL
878,2550,1,four_1.png,four_6.png,html-button-response,53,231032,5a9675bfb5e2110001c69f33,typicality,NULL
879,1695,0,two_2.png,two_9.png,html-button-response,54,232728,5a9675bfb5e2110001c69f33,typicality,NULL
880,2736,0,nine_10.png,nine_7.png,html-button-response,55,235465,5a9675bfb5e2110001c69f33,typicality,NULL
881,3214,1,three_5.png,three_2.png,html-button-response,56,238681,5a9675bfb5e2110001c69f33,typicality,NULL
882,4142,0,five_9.png,five_6.png,html-button-response,57,242825,5a9675bfb5e2110001c69f33,typicality,NULL
883,3255,0,one_1.png,one_7.png,html-button-response,58,246081,5a9675bfb5e2110001c69f33,typicality,NULL
884,2702,0,four_9.png,four_4.png,html-button-response,59,248785,5a9675bfb5e2110001c69f33,typicality,NULL
885,2030,1,six_3.png,six_7.png,html-button-response,60,250816,5a9675bfb5e2110001c69f33,typicality,NULL
886,2144,0,one_1.png,one_8.png,html-button-response,61,252961,5a9675bfb5e2110001c69f33,typicality,NULL
887,1407,0,eight_6.png,eight_10.png,html-button-response,62,254369,5a9675bfb5e2110001c69f33,typicality,NULL
888,1519,0,two_1.png,two_4.png,html-button-response,63,255889,5a9675bfb5e2110001c69f33,typicality,NULL
889,1247,1,six_4.png,six_2.png,html-button-response,64,257137,5a9675bfb5e2110001c69f33,typicality,NULL
890,1958,0,four_8.png,four_2.png,html-button-response,65,259097,5a9675bfb5e2110001c69f33,typicality,NULL
891,3086,0,three_4.png,three_3.png,html-button-response,66,262185,5a9675bfb5e2110001c69f33,typicality,NULL
892,2214,0,one_7.png,one_2.png,html-button-response,67,264401,5a9675bfb5e2110001c69f33,typicality,NULL
893,1246,1,zero_1.png,zero_4.png,html-button-response,68,265648,5a9675bfb5e2110001c69f33,typicality,NULL
894,2351,1,three_8.png,three_6.png,html-button-response,69,268016,5a9675bfb5e2110001c69f33,typicality,NULL
895,2688,0,two_5.png,two_9.png,html-button-response,70,270705,5a9675bfb5e2110001c69f33,typicality,NULL
896,2215,1,eight_1.png,eight_7.png,html-button-response,71,272921,5a9675bfb5e2110001c69f33,typicality,NULL
897,1175,0,seven_4.png,seven_6.png,html-button-response,72,274097,5a9675bfb5e2110001c69f33,typicality,NULL
898,2119,0,four_6.png,four_10.png,html-button-response,73,276217,5a9675bfb5e2110001c69f33,typicality,NULL
899,3542,1,zero_3.png,zero_8.png,html-button-response,74,279761,5a9675bfb5e2110001c69f33,typicality,NULL
900,5110,0,five_8.png,five_1.png,html-button-response,75,284872,5a9675bfb5e2110001c69f33,typicality,NULL
901,2127,1,four_8.png,four_7.png,html-button-response,76,287001,5a9675bfb5e2110001c69f33,typicality,NULL
902,2087,1,five_4.png,five_7.png,html-button-response,77,289089,5a9675bfb5e2110001c69f33,typicality,NULL
903,1839,1,five_4.png,five_5.png,html-button-response,78,290929,5a9675bfb5e2110001c69f33,typicality,NULL
904,1951,0,three_5.png,three_1.png,html-button-response,79,292881,5a9675bfb5e2110001c69f33,typicality,NULL
905,982,1,zero_3.png,zero_9.png,html-button-response,80,293865,5a9675bfb5e2110001c69f33,typicality,NULL
906,2126,1,four_1.png,four_9.png,html-button-response,81,295993,5a9675bfb5e2110001c69f33,typicality,NULL
907,1111,0,two_6.png,two_10.png,html-button-response,82,297105,5a9675bfb5e2110001c69f33,typicality,NULL
908,1159,1,four_4.png,four_7.png,html-button-response,83,298265,5a9675bfb5e2110001c69f33,typicality,NULL
909,1231,0,two_2.png,two_1.png,html-button-response,84,299496,5a9675bfb5e2110001c69f33,typicality,NULL
910,2943,0,five_10.png,five_1.png,html-button-response,85,302440,5a9675bfb5e2110001c69f33,typicality,NULL
911,4792,1,zero_5.png,zero_2.png,html-button-response,86,307233,5a9675bfb5e2110001c69f33,typicality,NULL
912,5390,1,five_2.png,five_3.png,html-button-response,87,312625,5a9675bfb5e2110001c69f33,typicality,NULL
913,13751,1,eight_4.png,eight_3.png,html-button-response,88,326377,5a9675bfb5e2110001c69f33,typicality,NULL
914,1462,0,four_10.png,four_5.png,html-button-response,89,327841,5a9675bfb5e2110001c69f33,typicality,NULL
915,1086,1,seven_3.png,seven_2.png,html-button-response,90,328929,5a9675bfb5e2110001c69f33,typicality,NULL
916,2078,1,five_7.png,five_10.png,html-button-response,91,331009,5a9675bfb5e2110001c69f33,typicality,NULL
917,1823,0,zero_4.png,zero_10.png,html-button-response,92,332833,5a9675bfb5e2110001c69f33,typicality,NULL
918,2351,1,eight_4.png,eight_2.png,html-button-response,93,335185,5a9675bfb5e2110001c69f33,typicality,NULL
919,1879,0,eight_6.png,eight_3.png,html-button-response,94,337064,5a9675bfb5e2110001c69f33,typicality,NULL
920,1543,1,three_8.png,three_7.png,html-button-response,95,338608,5a9675bfb5e2110001c69f33,typicality,NULL
921,1688,0,two_5.png,two_3.png,html-button-response,96,340297,5a9675bfb5e2110001c69f33,typicality,NULL
922,2023,0,seven_9.png,seven_8.png,html-button-response,97,342321,5a9675bfb5e2110001c69f33,typicality,NULL
923,2279,1,two_3.png,two_7.png,html-button-response,98,344601,5a9675bfb5e2110001c69f33,typicality,NULL
924,6334,1,six_7.png,six_5.png,html-button-response,99,350937,5a9675bfb5e2110001c69f33,typicality,NULL
925,2190,1,seven_8.png,seven_9.png,html-button-response,100,353128,5a9675bfb5e2110001c69f33,typicality,NULL
926,3592,0,six_5.png,six_1.png,html-button-response,101,356721,5a9675bfb5e2110001c69f33,typicality,NULL
927,1303,0,one_4.png,one_9.png,html-button-response,102,358025,5a9675bfb5e2110001c69f33,typicality,NULL
928,3024,0," "," ",html-button-response,0,3092,5c73b7351917dc000153e107,typicality,NULL
929,28008,NULL," "," ",instructions,1,31100,5c73b7351917dc000153e107,typicality,NULL
930,21042,NULL,NULL,NULL,survey-text,2,52153,5c73b7351917dc000153e107,typicality,"{"Q0":"Most unusual, weirder version of handwritten digits."}"
931,6835,0,one_4.png,one_3.png,html-button-response,3,58990,5c73b7351917dc000153e107,typicality,NULL
932,1462,1,eight_10.png,eight_2.png,html-button-response,4,60454,5c73b7351917dc000153e107,typicality,NULL
933,2030,0,four_3.png,four_9.png,html-button-response,5,62485,5c73b7351917dc000153e107,typicality,NULL
934,1646,1,five_7.png,five_10.png,html-button-response,6,64133,5c73b7351917dc000153e107,typicality,NULL
935,1338,0,eight_7.png,eight_3.png,html-button-response,7,65473,5c73b7351917dc000153e107,typicality,NULL
936,2594,1,two_4.png,two_1.png,html-button-response,8,68067,5c73b7351917dc000153e107,typicality,NULL
937,1908,0,zero_9.png,zero_7.png,html-button-response,9,69977,5c73b7351917dc000153e107,typicality,NULL
938,2513,0,four_1.png,four_4.png,html-button-response,10,72492,5c73b7351917dc000153e107,typicality,NULL
939,6862,1,eight_3.png,eight_4.png,html-button-response,11,79355,5c73b7351917dc000153e107,typicality,NULL
940,1504,0,four_6.png,four_8.png,html-button-response,12,80860,5c73b7351917dc000153e107,typicality,NULL
941,2108,0,zero_10.png,zero_9.png,html-button-response,13,82971,5c73b7351917dc000153e107,typicality,NULL
942,1367,0,zero_5.png,zero_2.png,html-button-response,14,84339,5c73b7351917dc000153e107,typicality,NULL
943,1326,0,four_1.png,four_10.png,html-button-response,15,85667,5c73b7351917dc000153e107,typicality,NULL
944,1832,1,three_1.png,three_5.png,html-button-response,16,87500,5c73b7351917dc000153e107,typicality,NULL
945,2233,1,two_9.png,two_8.png,html-button-response,17,89735,5c73b7351917dc000153e107,typicality,NULL
946,2697,1,two_8.png,two_4.png,html-button-response,18,92433,5c73b7351917dc000153e107,typicality,NULL
947,2119,0,six_6.png,six_10.png,html-button-response,19,94553,5c73b7351917dc000153e107,typicality,NULL
948,1029,1,three_8.png,three_2.png,html-button-response,20,95583,5c73b7351917dc000153e107,typicality,NULL
949,3209,1,eight_5.png,eight_2.png,html-button-response,21,98794,5c73b7351917dc000153e107,typicality,NULL
950,1203,0,five_9.png,five_6.png,html-button-response,22,100000,5c73b7351917dc000153e107,typicality,NULL
951,1903,1,three_1.png,three_10.png,html-button-response,23,101904,5c73b7351917dc000153e107,typicality,NULL
952,1451,0,nine_10.png,nine_6.png,html-button-response,24,103356,5c73b7351917dc000153e107,typicality,NULL
